time,seconds_elapsed,z,y,x
1663562598302710300,0.0017102050781261369,0.0233552455902099,-0.0128278732299804,-0.0214361548423767
1663562598312709000,0.011709228515623948,0.0234771370887756,-0.0128393173217773,-0.0212847590446472
1663562598322708000,0.021708007812502927,-0.0456770658493042,-0.0128097534179687,-0.0140172839164733
1663562598332706800,0.0317067871093748,-0.0450497865676879,-0.0127801895141601,-0.0140235424041748
1663562598342705700,0.04170556640625023,-0.0090139508247375,-0.0223207473754882,0.016830563545227
1663562598352704500,0.05170458984375159,0.0337942838668823,0.0015897750854492,-0.0021926760673522
1663562598362703400,0.06170336914062702,0.0332683324813842,-0.0080108642578125,0.0022929310798645
1663562598372702200,0.07170214843750244,0.0182486772537231,-0.0032463073730468,0.0067300200462341
1663562598382701300,0.0817014160156262,0.0198774933815002,-0.0056734085083007,-0.0125007033348083
1663562598392699400,0.0916994628906238,0.7963485717773438,-0.1133737564086914,-0.1145599782466888
1663562598402697200,0.10169726562500259,2.8157315254211426,0.0383424758911132,-0.0923429429531097
1663562598412696000,0.11169604492188157,2.0648016929626465,-0.0389928817749023,-0.0825287699699401
1663562598422695000,0.12169482421874989,-0.1653773784637451,0.0791740417480468,-0.0566989183425903
1663562598432693800,0.13169384765625125,-1.7035735845565796,0.0952224731445312,-0.0190238356590271
1663562598442692600,0.14169262695312668,-1.8978731632232664,-0.0208044052124023,-0.0839643478393554
1663562598452691500,0.1516914062500021,-0.6321799159049988,0.0008344650268554,0.1195525527000427
1663562598462690300,0.16169018554688108,-0.6448343992233276,9.536743164e-06,0.1190302968025207
1663562598472689000,0.17168896484375296,1.2878201007843018,-0.1708745956420898,0.0804846882820129
1663562598482687700,0.18168774414062483,1.28289794921875,-0.1711969375610351,0.0805884599685669
1663562598492685800,0.191685791015626,-0.1673356294631958,0.1188488006591796,-0.0488092303276062
1663562598502684700,0.20168457031250142,-0.7996104955673218,0.1314163208007812,-0.2492128014564514
1663562598512683300,0.21168334960937685,-0.7948853373527527,0.1316738128662109,-0.2483746409416198
1663562598522682000,0.22168212890625227,0.0087561011314392,-0.0361204147338867,-0.0450721979141235
1663562598532680700,0.23168066406250176,0.4284188449382782,-0.1466617584228515,0.0117982625961303
1663562598542679600,0.2416794433593772,0.4225590527057647,-0.1469917297363281,0.0107244849205017
1663562598552678100,0.2516782226562526,0.4780773818492889,-0.1470241546630859,0.2127013802528381
1663562598562677000,0.2616770019531245,-0.1471420526504516,0.0470714569091796,-0.0439571142196655
1663562598572675600,0.27167553710937753,-0.2509031295776367,0.0759925842285156,-0.0930196344852447
1663562598582674400,0.28167431640625296,-0.2486591339111328,0.076089859008789,-0.0920903980731964
1663562598592673300,0.29167333984375077,0.0904597640037536,-0.0317296981811523,-0.1228581666946411
1663562598602671900,0.30167187500000026,0.0883972644805908,-0.0318365097045898,-0.1232980489730835
1663562598612670700,0.3116706542968757,0.1921843588352203,-0.0821495056152343,0.0144119262695312
1663562598622668800,0.3216687011718804,0.0891036987304687,-0.0150871276855468,0.0737150311470031
1663562598632667600,0.33166772460937466,0.0901063084602356,-0.0150327682495117,0.0738906860351562
1663562598642666200,0.34166625976562415,-0.0257049202919006,0.0544509887695312,0.0338796377182006
1663562598652665000,0.3516650390624996,-0.0061771273612976,0.0041675567626953,-0.0255075097084045
1663562598662663700,0.3616635742187526,-0.0068994164466857,0.0041370391845703,-0.0255765914916992
1663562598672662500,0.3716625976562504,0.1238543987274169,-0.0629482269287109,-0.0115594863891601
1663562598682661000,0.3816611328124999,0.1732235252857208,-0.0007276535034179,-0.0287199020385742
1663562598692660700,0.3916606445312496,0.1729911863803863,-0.0007448196411132,-0.0287898778915405
1663562598702660400,0.4016604003906252,0.0458061695098876,0.0084028244018554,-0.0535041093826293
1663562598712659200,0.41165917968750065,-0.0695738792419433,-0.0157718658447265,0.0406599640846252
1663562598722658000,0.4216579589843725,-0.0065193176269531,-0.0398025512695312,0.0286221504211425
1663562598732656600,0.4316567382812515,-0.0083352327346801,-0.039896011352539,0.0281653404235839
1663562598742655500,0.4416555175781305,0.0750422477722168,-0.037663459777832,0.0132158994674682
1663562598752654000,0.45165405273437287,0.0925949215888977,0.0291519165039062,-0.0181807875633239
1663562598762653000,0.46165283203125185,-0.0215497016906738,0.0145225524902343,-0.051685631275177
1663562598772651800,0.47165185546874966,-0.0741085410118103,-0.0263681411743164,-0.0174539685249328
1663562598782650400,0.4816503906250027,-0.0752081274986267,-0.0264854431152343,-0.016739547252655
1663562598792649200,0.4916491699218781,-0.0279866456985473,-0.0576200485229492,0.0333445072174072
1663562598802647800,0.5016477050781276,0.054313838481903,-0.0816774368286132,-0.0022382736206054
1663562598812646400,0.5116464843749995,0.0881028175354003,-0.0411357879638671,0.0122485160827636
1663562598822645200,0.5216452636718785,-0.0501179695129394,0.0210180282592773,0.0074331760406494
1663562598832644000,0.5316440429687503,-0.0241820812225341,-0.0101070404052734,0.0119769573211669
1663562598842642700,0.5416425781249998,-0.0242339372634887,-0.0101137161254882,0.0118105411529541
1663562598852641500,0.5516416015625012,0.0631478428840637,-0.0436773300170898,0.0161779522895813
1663562598862640000,0.5616401367187507,0.0613502264022827,-0.0437631607055664,0.0155450701713562
1663562598872639000,0.5716389160156261,-0.0072439312934875,-0.0246791839599609,-0.018233835697174
1663562598882637800,0.581637939453131,-0.0079749822616577,-0.0247325897216796,-0.0182287693023681
1663562598892636400,0.591636474609377,-0.0361571311950683,-0.0079364776611328,-0.0086138248443603
1663562598902635000,0.6016350097656264,-0.0523625612258911,0.0160255432128906,-0.0108867287635803
1663562598912633900,0.6116337890625019,0.0452571511268615,-0.0079383850097656,0.0106801986694335
1663562598922633200,0.6216333007812516,0.0294647216796875,-0.031987190246582,0.0060252547264099
1663562598932631800,0.631631835937501,-0.0339609384536743,-0.0272674560546875,-0.0131825804710388
1663562598942630700,0.6416306152343729,-0.0603163242340087,-0.0057392120361328,0.0133653879165649
1663562598952629500,0.6516293945312519,-0.0595901012420654,-0.005690574645996,0.0133507251739501
1663562598962628000,0.6616281738281309,0.0202499032020568,-0.0104360580444335,-0.0150385499000549
1663562598972627000,0.6716269531250028,0.05855393409729,-0.0152587890625,0.0164924263954162
1663562598982625800,0.6816257324218782,0.0199258923530578,-0.0080890655517578,0.0093546509742736
1663562598992624400,0.6916242675781277,0.0193777680397033,-0.0081300735473632,0.009272277355194
1663562599002623200,0.7016232910156255,-0.0497444868087768,-0.0128974914550781,0.0021218061447143
1663562599012621800,0.7116218261718785,-0.049141526222229,-0.0128602981567382,0.002029001712799
1663562599022620700,0.7216206054687504,-0.038735806941986,-0.0199718475341796,-0.0027946233749389
1663562599032619300,0.7316193847656258,0.0278183817863464,-0.0104351043701171,-0.0124902129173278
1663562599042618000,0.7416181640625013,0.0320382714271545,-0.0128631591796875,-0.0050840377807617
1663562599052617000,0.7516169433593731,-0.0188525915145874,-0.010528564453125,0.0072261095046997
1663562599062615600,0.7616154785156262,-0.0305181741714477,0.0062484741210937,-0.0166777372360229
1663562599072614400,0.7716145019531275,0.0030660033226013,-0.024881362915039,-0.0023027062416076
1663562599082613200,0.781613281250003,0.0148756504058837,-0.0081329345703125,0.0048538446426391
1663562599092612600,0.7916125488281267,0.0146940350532531,-0.0081262588500976,0.0047090649604797
1663562599102611500,0.8016115722656245,0.0002787113189697,-0.0081338882446289,0.0118522047996521
1663562599112610000,0.8116101074218811,8.29696655273e-05,-0.0081405639648437,0.0118657946586608
1663562599122609000,0.821608886718753,0.0192186832427978,-0.0081501007080078,-0.0143262147903442
1663562599132607700,0.8316076660156249,-0.0025829076766967,-0.0081939697265625,-0.0259485244750976
1663562599142606300,0.8416064453125003,-0.0217813253402709,-0.0202016830444335,0.0009888410568237
1663562599152605200,0.8516052246093722,-0.0193012952804565,-0.0178136825561523,0.0062282085418701
1663562599162603800,0.8616037597656252,-0.0189992785453796,-0.0178165435791015,0.0065106749534606
1663562599172602600,0.8716025390625006,0.0357671976089477,-0.0346012115478515,0.0232979655265808
1663562599182601500,0.881601562500002,0.035477876663208,-0.0346221923828125,0.0232796072959899
1663562599192600000,0.8916000976562515,0.0114184617996215,-0.0274553298950195,-0.0029361844062805
1663562599202599000,0.9015988769531305,-0.0386302471160888,-0.0058908462524414,-0.007642924785614
1663562599212597800,0.9115976562500023,-0.0121189951896667,-0.0034828186035156,-0.0076723098754882
1663562599222596900,0.9215969238281261,0.0332352519035339,-0.0082693099975585,-0.0077206492424011
1663562599232595700,0.9315957031250015,0.0330745577812194,-0.0082902908325195,-0.0077032446861267
1663562599242594800,0.9415947265625029,0.0277358293533325,-0.0083560943603515,-0.0095472931861877
1663562599252593700,0.9515937500000007,0.0270044207572937,-0.008427619934082,-0.0089387893676757
1663562599262592800,0.961592773437502,-0.0308520793914794,-0.0348281860351562,0.0130012035369873
1663562599272592000,0.9715917968749999,-0.0139719247817993,-0.0156526565551757,0.0273328423500061
1663562599282591000,0.9815910644531307,-0.0137844681739807,-0.0156211853027343,0.0268462300300598
1663562599292590000,0.991590087890625,0.0194829702377319,-0.0251722335815429,-0.0047175288200378
1663562599302589000,1.0015888671875004,-0.0115845203399658,-0.017989158630371,-0.0167396664619445
1663562599312588000,1.0115881347656241,-0.0117609500885009,-0.0179996490478515,-0.0167808532714843
1663562599322587100,1.0215871582031255,0.0076019763946533,-0.0084199905395507,-0.0213977098464965
1663562599332586200,1.0315861816406269,0.0076287388801574,-0.0084457397460937,-0.0208558440208435
1663562599342585300,1.0415854492187506,0.0052552223205566,-0.0060758590698242,-0.0159841775894165
1663562599352584400,1.051584472656252,0.0052652359008789,-0.0061073303222656,-0.0150482058525085
1663562599362583600,1.0615834960937498,0.0265402197837829,-0.0085296630859375,0.0328863859176635
1663562599372582700,1.0715827636718807,0.0075597763061523,-0.0061235427856445,0.0113434791564941
1663562599382581000,1.0815810546875007,-0.0090915560722351,0.0010671615600585,0.0018460750579833
1663562599392579600,1.0915795898437501,0.0076856613159179,-0.0133066177368164,-0.0005202293395996
1663562599402577700,1.1015776367187513,0.0267313718795776,-0.0372428894042968,0.0161505937576293
1663562599412576800,1.1115766601562527,-0.0142812728881835,-0.025278091430664,-0.0057531595230102
1663562599422575900,1.1215759277343729,-0.0140711665153503,-0.025252342224121,-0.005684494972229
1663562599432574200,1.13157421875,-0.0187188386917114,0.0178356170654296,0.0063812136650085
1663562599442572500,1.1415725097656235,0.0195373892784118,-0.0156936645507812,0.018369436264038
1663562599452571600,1.1515715332031249,0.0192313194274902,-0.0156898498535156,0.017867624759674
1663562599462570800,1.1615708007812522,0.0024614334106445,-0.0180397033691406,-0.0045428872108459
1663562599472569900,1.17156982421875,0.0024654269218444,-0.0179901123046875,-0.0051252245903015
1663562599482569000,1.1815688476562514,1.56760215759e-05,-0.022745132446289,-0.0057466030120849
1663562599492568000,1.1915681152343716,-0.0096917748451232,-0.0275297164916992,0.0013478994369506
1663562599502567200,1.2015671386718765,0.0022403001785278,-0.015578269958496,-0.0177308917045593
1663562599512566000,1.211565917968752,0.0071496963500976,-0.0131797790527343,0.0086932778358459
1663562599522564900,1.2215649414062497,-0.0024477243423461,-0.0060005187988281,0.0015990734100341
1663562599532563700,1.2315637207031251,-0.0095542669296264,-0.0203542709350585,-0.0055545568466186
1663562599542562600,1.2415625000000006,-0.0161686539649963,-0.0298585891723632,0.0318782329559326
1663562599552561400,1.251561523437502,-0.0157154202461242,-0.0178394317626953,0.005059003829956
1663562599562560300,1.2615603027343774,-0.015074610710144,-0.0177745819091796,0.0045424699783325
1663562599572559000,1.2715590820312528,-4.02927398681e-05,-0.010533332824707,-0.0074226856231689
1663562599582557700,1.2815576171875023,3.01003456115e-05,-0.0105342864990234,-0.0073879361152648
1663562599592556500,1.291556640625,0.0167374014854431,-0.0081443786621093,-0.0241812467575073
1663562599602555400,1.3015554199218755,-0.0072216391563415,-0.0153579711914062,0.0002669692039489
1663562599612554000,1.311553955078125,-0.0071035027503967,-0.0153331756591796,0.0001811981201171
1663562599622552000,1.3215520019531262,-0.0090031027793884,-0.0272855758666992,0.0218806862831115
1663562599632551000,1.331551025390624,0.0033184885978698,-0.0248575210571289,3.0517578125e-05
1663562599642549500,1.3415495605468806,0.0031790733337402,-0.0248661041259765,3.20076942443e-05
1663562599652548400,1.3515483398437524,0.0245922207832336,-0.0129070281982421,-0.007021427154541
1663562599662547000,1.361546875000002,-0.0111229419708251,-0.0129022598266601,-0.0117766261100769
1663562599672545800,1.3715458984374997,-0.006226897239685,-0.0033159255981445,-0.0165364146232604
1663562599682545200,1.3815451660156235,0.0036157369613647,-0.0153102874755859,-0.0063785910606384
1663562599692544500,1.3915444335937508,0.0037420988082885,-0.0153074264526367,-0.0062869787216186
1663562599702544100,1.4015441894531264,-0.0273244380950927,-0.0200834274291992,0.01517915725708
1663562599712543000,1.4115429687500018,-0.0265626311302185,-0.0200052261352539,0.0145459771156311
1663562599722541800,1.4215417480468808,0.0196694731712341,-0.0151395797729492,-0.0027203559875488
1663562599732541200,1.431541259765627,0.0416191816329956,-0.0007266998291015,0.0039433240890502
1663562599742540800,1.441540771484373,0.0220077037811279,-0.0103101730346679,-0.0059308409690856
1663562599752539400,1.4515393066406261,0.0214404463768005,-0.0103254318237304,-0.006170630455017
1663562599762538200,1.4615383300781275,-0.0286491513252258,-0.017486572265625,0.0057041645050048
1663562599772536800,1.471536865234377,-0.0090407729148864,-0.0341930389404296,0.0148761868476867
1663562599782535700,1.4815356445312524,0.017728567123413,-0.0293455123901367,-0.0146206617355346
1663562599792534500,1.4915344238281278,0.0413288474082946,-0.0245866775512695,-0.0072789192199707
1663562599802533000,1.5015332031249997,0.041130781173706,-0.0245962142944335,-0.0072634220123291
1663562599812532000,1.5115319824218787,0.0101390480995178,-0.019810676574707,0.0047917366027832
1663562599822530600,1.5215305175781246,-0.0015338063240051,0.0041494369506835,-0.0213950872421264
1663562599832529400,1.531529296875,-0.0278719663619995,-0.0006380081176757,-0.0118936896324157
1663562599842528300,1.5415283203125014,0.0173439383506774,-0.0102214813232421,0.0167546868324279
1663562599852526800,1.551526855468751,0.019365906715393,-0.0246009826660156,-4.50015068054e-05
1663562599862525700,1.5615256347656263,0.0026087164878845,-0.0246248245239257,0.0024834871292114
1663562599872524500,1.5715246582031277,0.0029147863388061,-0.0246133804321289,0.0025502443313598
1663562599882523100,1.5815231933593772,-0.0254067182540893,-0.0389537811279296,-0.0117744803428649
1663562599892522000,1.5915219726562526,-0.0271983742713928,-0.0150022506713867,-0.0255427360534667
1663562599902520600,1.601520507812502,0.0204256772994995,-0.010228157043457,-0.0230131745338439
1663562599912519400,1.61151953125,0.0270984768867492,-0.0174999237060546,-0.0174197554588317
1663562599922518800,1.6215187988281308,0.035798966884613,-0.0127820968627929,0.0069503784179687
1663562599932517400,1.6315173339843732,0.0090510249137878,-0.0248136520385742,0.0001083016395568
1663562599942516200,1.6415161132812521,-0.0242862105369567,-0.0343618392944335,0.0095707774162292
1663562599952514800,1.6515148925781276,-0.0239745378494262,-0.0343666076660156,0.0099796652793884
1663562599962513700,1.661513671875003,0.030856430530548,-0.0248050689697265,-0.0019723176956176
1663562599972512300,1.6715122070312525,0.0117102861404418,-0.020024299621582,-0.006795048713684
1663562599982511000,1.681510986328128,0.0119293332099914,-0.0200176239013671,-0.0066014528274536
1663562599992509700,1.6915097656249998,0.0024431943893432,-0.008066177368164,-0.0084657669067382
1663562600002508500,1.7015085449218788,0.0024616122245788,-0.0080881118774414,-0.0079313516616821
1663562600012507100,1.7115070800781247,0.0166251063346862,-0.0033340454101562,-0.0004201531410217
1663562600022506000,1.721506103515626,-0.0194044113159179,-0.0177164077758789,-0.0027364492416381
1663562600032504600,1.7315046386718755,-0.0214955210685729,-0.0129032135009765,0.028319239616394
1663562600042503400,1.741503417968751,-0.011777639389038,-0.0248680114746093,-0.0029439330101013
1663562600052502300,1.7515021972656264,-0.0116689801216125,-0.0248451232910156,-0.0029193758964538
1663562600062500900,1.7615009765625018,-0.011268675327301,-0.0128555297851562,0.0088893771171569
1663562600072499700,1.7714997558593772,0.0153381824493408,-0.01043701171875,0.0016394257545471
1663562600082498300,1.7814982910156267,0.0153400301933288,-0.0104293823242187,0.0015497207641601
1663562600092497200,1.7914970703125022,-0.0109342336654663,-0.0199947357177734,0.0086153745651245
1663562600102496000,1.80149609375,-0.0157306790351867,-0.0080156326293945,0.006182312965393
1663562600112494600,1.811494628906253,-0.0152690410614013,-0.0079669952392578,0.0058454871177673
1663562600122493400,1.8214934082031249,0.0039498805999755,-0.0007944107055664,0.0011352896690368
1663562600132492300,1.8314921875000003,-0.0057437419891357,-0.022353172302246,-0.0108447670936584
1663562600142491000,1.8414909667968757,-0.0273537635803222,-0.0199413299560546,0.024970531463623
1663562600152489700,1.8514897460937512,-0.0273299813270568,-0.019942283630371,0.0248869061470031
1663562600162488600,1.8614885253906266,0.0260650515556335,-0.0126934051513671,0.0173567533493042
1663562600172487200,1.871487060546876,0.0380139350891113,-0.0078792572021484,0.031176209449768
1663562600182486000,1.8814860839843774,0.0112217664718627,-0.0150327682495117,-0.0272740721702575
1663562600192484600,1.891484619140627,-0.0178031325340271,-0.0030736923217773,-0.0273674726486206
1663562600202483200,1.9014831542968764,-0.0058434009552001,-0.0102529525756835,-0.0058047175407409
1663562600212481500,1.9114814453125,-0.0130737423896789,-0.0126590728759765,-0.015295922756195
1663562600222480400,1.9214804687500013,-0.013202428817749,-0.012664794921875,-0.0153901576995849
1663562600232479200,1.9314792480468803,0.0107057094573974,-0.0030975341796875,-0.0033903717994689
1663562600242478000,1.9414780273437522,-0.0062130689620971,-0.0055112838745117,-0.000754177570343
1663562600252476700,1.9514765625000017,-0.0059103369712829,-0.0054931640625,-0.0007246732711791
1663562600262475500,1.9614755859374995,-0.0246614813804626,-0.0007076263427734,-0.0073487758636474
1663562600272474400,1.971474365234375,-0.0007653832435607,-0.0246715545654296,-0.0025328993797302
1663562600282473000,1.981472900390628,-0.0009013414382934,-0.0246801376342773,-0.0024048686027526
1663562600292471800,1.9914719238281258,0.0253224968910217,-0.0103187561035156,-0.0192024111747741
1663562600302470700,2.001470703125001,-0.0033461451530456,-0.0151290893554687,-0.0019169449806213
1663562600312469500,2.0114694824218766,-0.0154568552970886,0.001631736755371,0.005223274230957
1663562600322468600,2.021468505859378,0.0058770179748535,-0.0199432373046875,0.0196213722229003
1663562600332467500,2.031467529296876,0.0055572390556335,-0.0199518203735351,0.0195813179016113
1663562600342466600,2.041466552734377,0.0198010802268981,-0.0271368026733398,-0.0045207142829895
1663562600352465400,2.0514653320312526,0.0050950050354003,-0.0151777267456054,-0.009394884109497
1663562600362464500,2.061464599609373,-0.0094912052154541,-0.0128087997436523,0.0050664544105529
1663562600372463600,2.0714636230468813,-0.0093026161193847,-0.0127973556518554,0.0051618814468383
1663562600382495200,2.081495117187501,-0.0189405679702758,-0.0128021240234375,0.0003960132598876
1663562600392526800,2.09152685546875,0.0023596882820129,-0.0223903656005859,0.0026463866233825
1663562600402558500,2.101558349609377,0.0307470560073852,-0.0247917175292968,0.0025539398193359
1663562600412589800,2.11158984375,0.0233749747276306,-0.0200176239013671,0.0025752186775207
1663562600422622200,2.1216223144531305,0.0231309533119201,-0.0200328826904296,0.00242280960083
1663562600432654600,2.131654541015628,-0.0482892990112304,0.0087270736694335,-0.0262190103530883
1663562600442687000,2.1416870117187514,-0.0478404760360717,0.0087270736694335,-0.0259292125701904
1663562600452719400,2.1517192382812524,0.0266997218132019,-0.027174949645996,-0.0256066918373107
1663562600462751700,2.1617517089843723,0.0193840861320495,-0.0080518722534179,0.0059546828269958
1663562600472784100,2.171784179687503,0.0143885016441345,-0.0176773071289062,0.0254100561141967
1663562600482816500,2.1818164062500003,-0.0122320652008056,-0.0368337631225585,0.0132797360420227
1663562600492849000,2.191848876953131,-0.0429601669311523,-0.0128583908081054,0.0109166502952575
1663562600502881500,2.2018815917968766,-0.0421094298362731,-0.0127887725830078,0.0104789733886718
1663562600512914400,2.211914550781252,0.0021198987960815,-0.015115737915039,0.0128620862960815
1663562600522946800,2.221946777343753,0.0098906159400939,-0.0078754425048828,0.0101905465126037
1663562600532979200,2.2319792480468763,0.0364787578582763,-0.0078363418579101,-0.0069010257720947
1663562600543011600,2.2420114746093773,0.0099000334739685,-0.0198221206665039,-0.0070047378540039
1663562600553044000,2.2520439453125007,0.0099138021469116,-0.0198173522949218,-0.0070436596870422
1663562600563076400,2.262076416015624,-0.0137396454811096,-0.0101852416992187,0.0067815780639648
1663562600573108700,2.272108642578125,-0.0113168954849243,-0.0101938247680664,-0.0028102397918701
1663562600583141000,2.282141113281252,0.0005205273628234,-0.000615119934082,0.0115792155265808
1663562600593173200,2.2921733398437496,-0.0042568445205688,-0.0173807144165039,0.0067467093467712
1663562600603205600,2.3022055664062506,-0.0042164325714111,-0.0173416137695312,0.0062267780303955
1663562600613237800,2.3122377929687516,-0.0160601139068603,-0.014937400817871,-0.0225510001182556
1663562600623270000,2.3222697753906267,0.0273771286010742,-0.005354881286621,-0.0056350827217102
1663562600633302000,2.3323020019531278,0.0271369814872741,-0.005375862121582,-0.0055469870567321
1663562600643334100,2.3423342285156252,0.0243167281150817,0.0065479278564453,-0.0195845365524292
1663562600653366300,2.3523662109375003,0.0051753520965576,-0.0125904083251953,0.0186244249343872
1663562600663398400,2.3623984375000013,-0.0042186379432678,-0.0341157913208007,0.0112594962120056
1663562600673430500,2.3724304199218764,-0.004094123840332,-0.0341014862060546,0.0111528038978576
1663562600683430000,2.382429931640626,0.0127316713333129,0.0041923522949218,0.0089213848114013
1663562600693429200,2.39242919921875,-0.016851007938385,-0.0030288696289062,-0.0344362258911132
1663562600703428900,2.4024289550781255,-0.0168743729591369,-0.0030536651611328,-0.0340813994407653
1663562600713428500,2.4124284667968787,-0.0191522240638732,-0.0174112319946289,0.0065867900848388
1663562600723427300,2.4224272460937506,0.013970136642456,0.001718521118164,-0.0028121471405029
1663562600733426000,2.432426025390626,-0.0003232955932617,-0.0102558135986328,0.0019442439079284
1663562600743424800,2.4424248046875014,-0.014685571193695,-0.0126380920410156,0.0017905235290527
1663562600753423600,2.452423583984377,-0.0219284892082214,-0.0246076583862304,0.0258198380470275
1663562600763422200,2.4624221191406264,-0.0217548608779907,-0.0245800018310546,0.0254634022712707
1663562600773421000,2.4724211425781277,0.0404305458068847,-0.019775390625,0.0274085402488708
1663562600783419600,2.482419677734377,0.0399557948112487,-0.0197858810424804,0.0269860625267028
1663562600793418500,2.4924184570312526,-0.0013518333435058,0.0137243270874023,-0.0308947563171386
1663562600803417300,2.5024172363281245,-0.0015879869461059,0.0137100219726562,-0.0307905673980712
1663562600813416000,2.512416015625,-0.0109151601791381,-0.0222148895263671,0.0033010840415954
1663562600823414000,2.522414062500001,-0.0106325149536132,-0.0222234725952148,0.0036263465881347
1663562600833412900,2.5324128417968765,0.029921531677246,-0.0294084548950195,-0.0084203481674194
1663562600843411500,2.542411376953126,-0.0299768447875976,-0.0054693222045898,-0.0013208985328674
1663562600853410300,2.552410400390624,-0.0559645295143127,-0.0126247406005859,0.0155250430107116
1663562600863409200,2.562409179687503,-0.0548555254936218,-0.012552261352539,0.0153001546859741
1663562600873407700,2.5724077148437523,-0.0369898080825805,-0.0029077529907226,-0.0204256772994995
1663562600883406600,2.582406494140624,0.0630466938018798,-0.0029516220092773,-0.0156127214431762
1663562600893405400,2.5924055175781255,0.0454943180084228,-0.0126113891601562,-0.0174728035926818
1663562600903404000,2.6024040527343715,0.0140086412429809,-0.0198211669921875,0.0066400170326232
1663562600913403000,2.6124028320312505,-0.0793554186820983,-0.0126409530639648,-0.0218653678894042
1663562600923401500,2.6224013671875,-0.0780585408210754,-0.0125980377197265,-0.0213592648506164
1663562600933400300,2.6324003906250013,-0.0152387619018554,0.0017890930175781,0.0075188279151916
1663562600943399200,2.6423991699218767,0.0465760231018066,-0.0269641876220703,-0.0092909932136535
1663562600953397800,2.6523977050781262,0.0273531079292297,-0.0006265640258789,0.0122195482254028
1663562600963396600,2.662396728515624,-0.027946650981903,-0.0413322448730468,-0.0429221987724304
1663562600973394700,2.672394775390625,-0.0181935429573059,0.0017318725585937,-0.0064589977264404
1663562600983393500,2.6823935546875006,-0.0299712419509887,-0.0222187042236328,-0.0083501935005187
1663562600993392000,2.69239208984375,-0.0081363320350646,-0.0174274444580078,-0.0151448249816894
1663562601003390200,2.7023901367187513,0.0303964018821716,-0.0246410369873046,0.0382024645805358
1663562601013388300,2.7123881835937524,0.0299880504608154,-0.0246610641479492,0.0381770133972168
1663562601023386400,2.7223864746093724,0.0144522190093994,0.0159616470336914,0.0020249485969543
1663562601033384400,2.732384521484377,0.0137032270431518,0.0159244537353515,0.0018168091773986
1663562601043382500,2.7423825683593748,-0.0101444721221923,-0.024759292602539,-0.012469470500946
1663562601053381000,2.752381103515628,-0.01025390625,-0.0247631072998046,-0.0125505328178405
1663562601063380000,2.7623798828124997,0.0183166861534118,-0.0223770141601562,0.0112326145172119
1663562601073377800,2.7723776855468785,0.006279170513153,-0.0151910781860351,-0.0104060769081115
1663562601083376600,2.7823767089843727,0.0130409002304077,0.0039615631103515,-0.0346425175666809
1663562601093375500,2.7923754882812517,0.012592613697052,0.0038976669311523,-0.0341151356697082
1663562601103374000,2.802374023437501,-0.0283392667770385,-0.0200910568237304,-0.0073040127754211
1663562601113373000,2.8123730468750026,-0.0256937742233276,-0.0177135467529296,0.0075616836547851
1663562601123372300,2.8223723144531263,-0.0065445899963378,-0.0057392120361328,0.0051924586296081
1663562601133371100,2.8323710937500017,0.0369060635566711,-0.010502815246582,-0.0019232034683227
1663562601143369700,2.8423696289062512,0.0366777181625366,-0.0105266571044921,-0.0019676685333251
1663562601153368600,2.8523686523437526,0.0049746632575988,-0.0057601928710937,0.0148506164550781
1663562601163367200,2.862367187500002,-0.0313916802406311,-0.0081739425659179,-0.0186912417411804
1663562601173366000,2.872365966796881,-0.0263038873672485,-0.0105619430541992,0.0076016783714294
1663562601183364600,2.8823645019531305,-0.0046874284744262,-0.0105524063110351,-0.0067502260208129
1663562601193363500,2.892363525390625,0.007039725780487,-0.0105714797973632,-0.011445939540863
1663562601203362300,2.9023623046875002,0.0142260789871215,-0.0009994506835937,0.0125097632408142
1663562601213361000,2.9123608398437497,-0.0027227997779846,-0.0201606750488281,-0.0162498354911804
1663562601223359700,2.922359863281251,-0.0003111362457275,-0.001007080078125,-0.0114954710006713
1663562601233358600,2.9323586425781265,0.013991355895996,-0.0321264266967773,0.0099723935127258
1663562601243357200,2.9423571777343724,0.0067027807235717,-0.0177640914916992,-0.0020862817764282
1663562601253356000,2.9523559570312514,0.0067830681800842,-0.0177736282348632,-0.0020063519477844
1663562601263355000,2.962354980468753,-0.0145840048789978,-0.0153751373291015,0.0100504159927368
1663562601273354200,2.9723542480468765,-0.0144838690757751,-0.015364646911621,0.010084331035614
1663562601283352800,2.982352783203126,-0.0098109245300292,0.006169319152832,-0.0162445902824401
1663562601293351700,2.9923515625000014,0.0215953588485717,-0.0033855438232421,0.0150219202041625
1663562601303351300,3.002351318359377,0.021245002746582,-0.0034141540527343,0.0149735212326049
1663562601313350700,3.012350585937501,0.0163321495056152,-0.0105962753295898,-0.0137907862663269
1663562601323350000,3.0223500976562505,-0.0222638249397277,-0.0034475326538085,-0.0063568353652954
1663562601333349400,3.032349365234378,-0.0218464732170104,-0.0034255981445312,-0.0063862204551696
1663562601343349000,3.0423488769531275,-0.0498938560485839,-0.0225439071655273,-0.0204585194587707
1663562601353347600,3.052347656250003,0.0223713517189025,-0.0273427963256835,-0.0055960416793823
1663562601363346400,3.0623464355468784,0.0340539216995239,-0.0034284591674804,-0.0126794576644897
1663562601373346000,3.0723459472656245,0.0337131023406982,-0.0034551620483398,-0.0123379230499267
1663562601383344600,3.0823447265625,0.000388741493225,-0.0058555603027343,0.0141553282737731
1663562601393343500,3.092343505859372,-0.040139615535736,-0.0106258392333984,-0.0049219727516174
1663562601403342300,3.1023422851562508,0.0009984970092773,-0.0201807022094726,0.0167183279991149
1663562601413341200,3.112341064453126,0.0180155634880065,-0.0105762481689453,-0.0027511715888977
1663562601423340000,3.122340087890624,0.0177578330039978,-0.0105867385864257,-0.0027843713760375
1663562601433339000,3.132338867187503,0.0082688927650451,-0.015385627746582,0.0020354390144348
1663562601443338000,3.142337890625001,0.0083787441253662,-0.0153751373291015,0.0020649433135986
1663562601453336600,3.1523366699218762,-0.0033546686172485,-0.0105628967285156,0.0022202730178833
1663562601463335700,3.1623356933593776,0.0015209317207336,-0.0129776000976562,-9.20891761779e-05
1663562601473334500,3.172334472656253,0.0085194110870361,-0.0105819702148437,-0.0024500489234924
1663562601483333400,3.182333496093751,0.008446455001831,-0.0105772018432617,0.0093507170677185
1663562601493332200,3.1923322753906263,-0.0130395293235778,-0.0177631378173828,0.0093362927436828
1663562601503331000,3.2023310546875017,-0.0128620862960815,-0.0057744979858398,0.0068405270576477
1663562601513330000,3.212329833984377,-0.0103383660316467,-0.0129528045654296,0.0045209527015686
1663562601523328800,3.2223288574218785,-0.0005092024803161,-0.0248899459838867,-0.0077364444732666
1663562601533327600,3.2323276367187503,-7.37905502319e-05,-0.0248470306396484,-0.0080535411834716
1663562601543326500,3.2423264160156258,0.0236648321151733,-0.0176620483398437,0.0038753747940063
1663562601553325300,3.252325195312501,0.0212434530258178,-0.0224666595458984,0.0061771869659423
1663562601563324200,3.2623242187500026,-0.0194153785705566,-0.0128746032714843,0.0037534832954406
1663562601573323000,3.2723229980468815,-0.0288015604019165,-0.024850845336914,0.0182006955146789
1663562601583321900,3.28232177734375,-0.0116977095603942,-0.005655288696289,-0.0108236074447631
1663562601593320700,3.2923208007812512,0.0221328139305114,-0.0247726440429687,-0.0061395168304443
1663562601603319600,3.3023195800781266,0.0218483805656433,-0.0248098373413085,-0.0060397386550903
1663562601613318400,3.312318359375002,0.0073512196540832,-0.0200119018554687,0.0154553055763244
1663562601623317200,3.322317138671881,-0.0120136141777038,-0.0176076889038085,-0.0137261748313903
1663562601633316000,3.3323161621093718,-0.0118910074234008,-0.0176057815551757,-0.0135822296142578
1663562601643315000,3.3423149414062507,0.005003809928894,-0.0295829772949218,-0.0135055184364318
1663562601653313800,3.352313720703126,-0.0118162631988525,-0.0032529830932617,0.0008843541145324
1663562601663312600,3.362312744140624,-0.0118557810783386,-0.0032577514648437,0.0009117126464843
1663562601673311500,3.372311523437503,-0.0334807038307189,-0.0319814682006835,-0.0134922266006469
1663562601683310300,3.382310302734375,0.0296249389648437,-0.019968032836914,0.0128610730171203
1663562601693309200,3.3923090820312503,0.0294926166534423,-0.0151872634887695,0.027249276638031
1663562601703307800,3.4023078613281257,-0.0137653350830078,-0.0175504684448242,-0.0043058991432189
1663562601713306600,3.412306640625001,-0.0134652853012084,-0.0175409317016601,-0.0042803287506103
1663562601723305200,3.4223051757812506,-0.0177246332168579,-0.0198907852172851,-0.0094825625419616
1663562601733304000,3.432303955078126,-0.0034504532814025,-0.0198688507080078,0.0139522552490234
1663562601743303000,3.442302978515624,-0.0033624172210693,-0.0198278427124023,0.013459026813507
1663562601753301500,3.4523015136718804,0.0087100863456726,-0.0054454803466796,0.0158811211585998
1663562601763300400,3.4623002929687523,-0.0152152180671691,-0.0030555725097656,0.0181758403778076
1663562601773299000,3.472298828125002,-0.0007811784744262,-0.0174217224121093,0.0206215977668762
1663562601783297800,3.4822978515624996,-0.0005137920379638,-0.0125684738159179,0.0007654428482055
1663562601793296400,3.4922963867187526,0.0185442566871643,-0.0221633911132812,0.0079158544540405
1663562601803295200,3.5022951660156245,0.0183796286582946,-0.0221271514892578,0.0073084235191345
1663562601813293800,3.5122939453125,0.0039416551589965,-0.0077314376831054,0.0043397545814514
1663562601823292700,3.522292724609372,0.0181446075439453,-0.0244693756103515,-0.0106505751609802
1663562601833291500,3.532291503906251,0.0153409838676452,-0.0101194381713867,-0.0062552690505981
1663562601843290000,3.5422900390625003,0.0148495435714721,-0.0101203918457031,-0.0064719915390014
1663562601853289000,3.5522890625000016,-0.0072371363639831,-0.026921272277832,-0.0255859494209289
1663562601863287800,3.5622878417968806,-0.0072080492973327,-0.0269403457641601,-0.0253657698631286
1663562601873286400,3.5722863769531266,0.0119861364364624,-0.017343521118164,-0.0062508583068847
1663562601883285200,3.582285156250002,-0.0025628209114074,-0.0006217956542968,0.0061713457107543
1663562601893284000,3.5922841796875,-0.0336200594902038,-0.0101957321166992,-0.0129668712615966
1663562601903282700,3.602282714843753,-0.033480167388916,-0.0102033615112304,-0.0128806829452514
1663562601913281500,3.6122814941406247,0.0002012252807617,-0.0221920013427734,-0.0123466849327087
1663562601923280100,3.6222800292968813,0.0024624466896057,-0.0174579620361328,-0.0069613456726074
1663562601933279000,3.632279052734372,0.0024028420448303,-0.0174760818481445,-0.0065101385116577
1663562601943277800,3.642277832031251,0.0120326876640319,-0.0174636840820312,0.0053558349609375
1663562601953276400,3.6522763671875005,0.0022827982902526,-0.0103082656860351,0.008204162120819
1663562601963275300,3.6622751464843724,-2.92062759399e-05,-0.017496109008789,0.0034363865852355
1663562601973273900,3.6722739257812513,8.45193862915e-05,-0.0055227279663085,0.0059793591499328
1663562601983272700,3.6822727050781303,6.94990158081e-05,-0.0055198669433593,0.0060039162635803
1663562601993271600,3.692271484375002,-0.0097079277038574,-0.0127086639404296,-0.0063166618347167
1663562602003269600,3.70226953125,-0.0097821354866027,-0.0127153396606445,-0.006291925907135
1663562602013267700,3.712267822265627,0.0117045640945434,-0.0031318664550781,0.0200706720352172
1663562602023265500,3.722265625000002,0.0211661458015441,-0.0127201080322265,0.0104714035987854
1663562602033263400,3.7322634277343774,0.020753800868988,-0.0127220153808593,0.0098035931587219
1663562602043261200,3.7422612304687526,-0.0126698017120361,-0.005507469177246,0.007382333278656
1663562602053260000,3.752260009765628,-0.0082233548164367,-0.0174741744995117,0.0091351866722106
1663562602063259000,3.7622587890625,-0.0082301497459411,-0.0174570083618164,0.0087428092956542
1663562602073257000,3.7722570800781305,0.0058979392051696,-0.0078496932983398,-0.0181919336318969
1663562602083255600,3.782255615234373,-0.0037954449653625,-0.0150480270385742,-0.0110958218574523
1663562602093254400,3.792254394531252,-0.0038535594940185,-0.0150403976440429,-0.0111773610115051
1663562602103253000,3.8022529296875014,-0.0014556646347045,-0.0126428604125976,0.0151823759078979
1663562602113251800,3.8122519531250028,-0.0134811401367187,0.008890151977539,-0.0038976073265075
1663562602123250400,3.8222504882812522,-0.0134960412979125,0.008890151977539,-0.0037590861320495
1663562602133249300,3.8322492675781277,-0.0039613246917724,0.0016822814941406,-0.0131974816322326
1663562602143248000,3.842247802734377,0.0271015167236328,-0.0078840255737304,0.0012051463127136
1663562602153246700,3.8522468261718785,-0.0206992030143737,-0.0150661468505859,0.0011805891990661
1663562602163245300,3.862245361328128,-0.0135244727134704,-0.0102701187133789,0.0011619925498962
1663562602173244200,3.872244140625,-0.0111910104751586,-0.0198554992675781,-0.0108588337898254
1663562602183242800,3.882242675781253,-0.011229932308197,-0.0198602676391601,-0.0109418034553527
1663562602193241600,3.8922416992187507,-0.0017609000205993,-0.029449462890625,0.0106298327445983
1663562602203240200,3.9022402343750002,-0.0017654299736022,-0.0294466018676757,0.0107196569442749
1663562602213239000,3.9122390136718757,-0.0081637501716613,-0.0126619338989257,-0.0081163644790649
1663562602223238000,3.922237792968751,-0.0052043795585632,-0.007847785949707,-0.0006450414657592
1663562602233235700,3.9322355957031263,-0.0028711557388305,-0.0054645538330078,0.0018391609191894
1663562602243234600,3.942234619140624,0.0071262121200561,-0.003061294555664,-0.0100656151771545
1663562602253233400,3.9522333984374995,-0.0119984745979309,-0.0174036026000976,-0.0196231007575988
1663562602263232300,3.962232177734375,-0.011493980884552,-0.0174150466918945,-0.0190064311027526
1663562602273230800,3.9722309570312504,-0.0014935135841369,-0.0317773818969726,-0.0042237639427185
1663562602283229700,3.982229736328126,-0.0013055801391601,-0.0317697525024414,-0.0041965842247009
1663562602293228300,3.9922282714843718,0.0037584900856018,-0.003061294555664,-0.0155383348464965
1663562602303228000,4.002227783203125,0.0085338950157165,-0.0198087692260742,-0.0131146311759948
1663562602313227300,4.012227294921878,0.0156185626983642,-0.0078544616699218,0.0132513642311096
1663562602323227000,4.022226806640628,0.006049633026123,-0.0054702758789062,0.0180080533027648
1663562602333226500,4.0322265625,-0.0082671046257019,-0.0150432586669921,0.0109016299247741
1663562602343226000,4.04222607421875,-0.0177197456359863,-0.0054559707641601,-0.008297860622406
1663562602353225000,4.052224853515625,0.0041087865829467,-0.0173845291137695,-0.00126314163208
1663562602363223600,4.0622236328125005,0.0350184440612793,-0.0174083709716796,0.0059558153152465
1663562602373223200,4.07222314453125,0.0348919034004211,-0.0174055099487304,0.0058713555335998
1663562602383221800,4.0822216796875,-0.0156872868537902,-0.0174264907836914,0.0056636929512023
1663562602393220600,4.092220703125001,-0.0253497958183288,-0.0174169540405273,0.0030658245086669
1663562602403219200,4.102219238281251,-0.0227417945861816,-0.007822036743164,0.0079820752143859
1663562602413218000,4.112218017578126,0.0159249901771545,-0.0102014541625976,-0.0161362886428833
1663562602423217000,4.122216796875001,0.0276886224746704,-0.0126047134399414,0.0054753422737121
1663562602433215700,4.132215820312503,0.0204703211784362,-0.0150060653686523,-0.0160978436470031
1663562602443214600,4.142214599609375,0.0205073356628417,-0.0149831771850585,-0.0161431431770324
1663562602453213400,4.15221337890625,-0.0253921747207641,-0.0270013809204101,-0.0135524272918701
1663562602463212300,4.1622124023437514,-0.0061659216880798,-0.0174407958984375,-0.0082189440727233
1663562602473211400,4.172211425781253,-0.0063209533691406,-0.0174551010131835,-0.0083250403404235
1663562602483210500,4.182210449218751,0.0294702649116516,-0.0150651931762695,0.0085396766662597
1663562602493209300,4.192209228515626,0.0291191339492797,-0.0150966644287109,0.0085874795913696
1663562602503208400,4.20220849609375,-0.0214052200317382,-0.0007553100585937,0.0037070512771606
1663562602513207600,4.212207519531251,-0.0045927166938781,0.0208282470703125,-0.0109938383102417
1663562602523206700,4.2222065429687525,-0.0069148540496826,-0.0126934051513671,-0.0084996819496154
1663562602533206300,4.232206298828125,-0.0069751739501953,-0.0151014328002929,-0.0252431631088256
1663562602543205400,4.242205322265626,-0.0069857239723205,-0.0150985717773437,-0.0249548554420471
1663562602553204500,4.25220458984375,0.0144930481910705,-0.0175294876098632,0.0161837935447692
1663562602563203300,4.262203369140625,0.0140823721885681,-0.0175647735595703,0.0163815021514892
1663562602573202400,4.2722023925781265,-0.0169682502746582,-0.0032005310058593,0.0092357397079467
1663562602583201500,4.282201416015628,0.004586637020111,-0.003213882446289,0.0260872244834899
1663562602593200600,4.292200683593752,-0.0123005509376525,-0.0223627090454101,0.009346067905426
1663562602603199700,4.302199707031253,0.0144467949867248,-0.0079565048217773,0.0041667819023132
1663562602613198800,4.312198730468751,0.0144323110580444,-0.0079460144042968,0.004075288772583
1663562602623197700,4.322197753906252,-0.0070369839668273,-0.0198841094970703,0.0035554766654968
1663562602633196800,4.33219677734375,0.0098450779914855,-0.000737190246582,0.0084097981452941
1663562602643196000,4.342195800781251,0.0098628401756286,-0.0127124786376953,-0.0035841464996337
1663562602653195000,4.3521950683593715,0.0022441744804382,-0.0055313110351562,-0.0111002326011657
1663562602663194000,4.3621940917968764,0.0021115541458129,-0.005528450012207,-0.011199414730072
1663562602673193000,4.372192871093752,-0.0052624940872192,-0.0102996826171875,0.0218719244003295
1663562602683192000,4.382192138671876,-0.0172473192214965,-0.0102710723876953,0.0117995738983154
1663562602693191200,4.392191162109377,-0.0171698927879333,-0.0102396011352539,0.0113323926925659
1663562602703190300,4.402190185546878,0.0116248726844787,-0.0125980377197265,-0.0108190774917602
1663562602713189000,4.412189208984373,0.0091282725334167,-0.0102195739746093,-0.0324006080627441
1663562602723188200,4.422188232421881,-0.0029155611991882,-0.0197868347167968,-0.0084915161132812
1663562602733187300,4.432187255859372,-0.0077074766159057,-0.0030326843261718,-0.0036866068840026
1663562602743186200,4.442186279296877,-0.0149478316307067,-0.0054235458374023,-0.0180257558822631
1663562602753185000,4.452185058593752,-0.014744758605957,-0.005446434020996,-0.0175142884254455
1663562602763183900,4.462183837890624,-0.0048897266387939,-0.0102272033691406,0.0090743899345397
1663562602773182700,4.472182617187503,-0.0069344043731689,-0.0102405548095703,-0.0001578330993652
1663562602783181600,4.482181640625001,0.01459801197052,-0.0006542205810546,0.0118460655212402
1663562602793180400,4.492180419921876,-0.0093349814414978,-0.0174198150634765,-0.0072923302650451
1663562602803179000,4.502178955078126,-0.0093315243721008,-0.0126323699951171,-0.002470314502716
1663562602813177900,4.512177734375001,-0.002102255821228,-0.0078296661376953,0.014368712902069
1663562602823176400,4.522176513671877,0.0145580768585205,-0.0222158432006835,0.0143872499465942
1663562602833175300,4.532175292968752,0.0120981931686401,-0.0198192596435546,0.0024541020393371
1663562602843174000,4.5421738281250015,0.0071313977241516,-0.0078353881835937,-0.0146955847740173
1663562602853172700,4.552172851562503,-0.0120007395744323,0.0136966705322265,0.0021005868911743
1663562602863171300,4.562171386718752,-0.0119401812553405,0.013702392578125,0.0021229982376098
1663562602873170200,4.572170166015628,-0.0024085044860839,-0.0246095657348632,-0.0002959370613098
1663562602883168800,4.582168701171881,0.009514033794403,-0.0198240280151367,-0.0122910141944885
1663562602893167600,4.5921677246093715,-0.0237753987312316,0.001749038696289,-0.0241668820381164
1663562602903166200,4.6021662597656245,-0.0232601761817932,0.0017547607421875,-0.0238303542137146
1663562602913165000,4.6121650390625,0.0156490802764892,-0.0149898529052734,-0.0113527178764343
1663562602923163600,4.622163574218753,0.0109151005744934,-0.0269832611083984,-0.0108789801597595
1663562602933162500,4.632162597656251,0.0132455229759216,-0.0150470733642578,0.0039291381835937
1663562602943161300,4.642161376953126,0.0130683183670043,-0.0150861740112304,0.0043578743934631
1663562602953160000,4.652159912109372,0.0107327103614807,-0.0174684524536132,-0.0004616379737854
1663562602963158800,4.662158691406251,-0.0036724209785461,-0.0055112838745117,-0.0028975009918212
1663562602973157400,4.672157470703127,-0.0109696388244628,-0.0103073120117187,0.0090375542640686
1663562602983156200,4.682156250000002,0.0176862478256225,-0.005507469177246,0.0114028453826904
1663562602993155000,4.692155029296881,-0.0114323496818542,-0.0175123214721679,-0.0125825405120849
1663562603003154000,4.702153808593753,-0.0255032777786254,-0.007913589477539,-0.007811963558197
1663562603013151700,4.7121518554687505,-0.011012315750122,-0.024658203125,-0.005388855934143
1663562603023149800,4.722149902343752,-0.0086156129837036,-0.0102910995483398,-0.0221191644668579
1663562603033148400,4.732148437500001,-0.0083950161933898,-0.0103101730346679,-0.0216097831726074
1663562603043146500,4.742146484375002,0.0201824903488159,-0.0199146270751953,0.023909568786621
1663562603053145000,4.752145019531252,0.0128766894340515,-0.0127229690551757,-6.70552253723e-05
1663562603063144200,4.762144287109372,0.0128561854362487,-0.0127105712890625,-0.0001610517501831
1663562603073142300,4.772142333984373,-0.0086200833320617,-0.0318584442138671,-0.0025851726531982
1663562603083140900,4.782140869140626,0.003632366657257,-0.022261619567871,-0.014737844467163
1663562603093139700,4.792139648437502,0.0105715990066528,-0.0126934051513671,-0.0077060461044311
1663562603103138600,4.802138671875003,0.0225031375885009,-0.024703025817871,-0.0047536492347717
1663562603113137200,4.8121372070312525,0.0006269216537475,-0.0271377563476562,0.0146859288215637
1663562603123136000,4.822135986328128,-0.0254867672920227,-0.0031633377075195,0.0002861022949218
1663562603133134800,4.832134765625,-0.0133918523788452,-0.0079545974731445,-0.0189053416252136
1663562603143133400,4.842133544921879,0.0104841589927673,-0.0175247192382812,-0.006862998008728
1663562603153132300,4.852132324218751,0.0102999210357666,-0.0175371170043945,-0.0068411231040954
1663562603163131100,4.862131103515626,0.0126606225967407,-0.0223398208618164,-0.0044192671775817
1663562603173129700,4.8721296386718755,-0.0111778974533081,-0.0271177291870117,-0.0068376064300537
1663562603183128600,4.882128662109377,0.0009234547615051,-0.0151386260986328,-0.0020784139633178
1663562603193127200,4.892127197265626,0.0008825659751892,-0.0151576995849609,-0.0019221901893615
1663562603203126000,4.902125976562502,0.0176421403884887,-0.0175514221191406,-0.0065850615501403
1663562603213124600,4.912124511718751,-0.0134243965148925,-0.0247316360473632,-0.008942425251007
1663562603223123500,4.922123535156253,0.008431851863861,-0.0151605606079101,0.003369927406311
1663562603233122000,4.932122070312502,0.008294939994812,-0.0151653289794921,0.0033313035964965
1663562603243121000,4.942120849609374,0.0129753351211547,-0.0055885314941406,0.0176633596420288
1663562603253119700,4.952119628906253,0.0029273629188537,-0.0103931427001953,-0.0087206363677978
1663562603263118300,4.962118408203125,0.0029999017715454,-0.0104007720947265,-0.008689522743225
1663562603273117200,4.972117187500004,-0.004053771495819,-0.0247573852539062,0.0008450746536254
1663562603283115800,4.982115722656253,-0.0041097998619079,-0.0103921890258789,-0.0015724897384643
1663562603293114400,4.992114257812503,0.0052473545074462,-0.0319709777832031,-0.0015352368354797
1663562603303113200,5.002113281250004,0.0055294036865234,-0.0319347381591796,-0.0016897320747375
1663562603313112600,5.012112548828128,0.0414295196533203,-0.003204345703125,0.0079553127288818
1663562603323112200,5.022112304687504,-0.011870801448822,-0.0151987075805664,0.0053575634956359
1663562603333111000,5.0321110839843755,-0.0070140957832336,0.0039396286010742,0.0054832696914672
1663562603343110700,5.042110595703129,-0.0073367953300476,0.0039548873901367,0.0050606131553649
1663562603353109500,5.052109619140623,0.016489028930664,-0.0128192901611328,-0.0044952630996704
1663562603363107800,5.06210791015625,0.0091980099678039,-0.0152139663696289,0.0050029158592224
1663562603373107500,5.072107421875003,0.0187100172042846,-0.0319728851318359,0.0098135471343994
1663562603383106000,5.082105957031253,-0.005477488040924,-0.005655288696289,0.0121029615402221
1663562603393105000,5.092104980468754,-0.0055603384971618,-0.0056276321411132,0.0117653608322143
1663562603403103500,5.102103515625004,-0.0220991969108581,-0.0103921890258789,0.0089396834373474
1663562603413102300,5.1121022949218755,-0.0169285535812377,-0.0175247192382812,0.0060712695121765
1663562603423101000,5.122100830078125,0.0237798690795898,-0.0007276535034179,-0.0183592438697814
1663562603433099800,5.132099853515626,0.0021865963935852,-0.015106201171875,-0.0087608098983764
1663562603443098600,5.142098632812498,-0.0097378492355346,-0.0150918960571289,-0.0038939714431762
1663562603453097200,5.152097167968748,-0.0097165703773498,-0.0151138305664062,-0.0038021802902221
1663562603463096000,5.162095947265627,-0.004493236541748,-0.012700080871582,-0.0082265734672546
1663562603473095000,5.172094970703128,-0.0042033791542053,-0.0126962661743164,-0.0079423189163208
1663562603483093500,5.182093505859378,0.0055063962936401,-0.0127115249633789,-0.0074827671051025
1663562603493092400,5.192092285156249,0.0055270791053771,-0.0127286911010742,-0.0073958039283752
1663562603503091200,5.202091308593751,-0.0016589760780334,-0.0222959518432617,-0.0121521949768066
1663562603513089800,5.21208984375,-0.0014192461967468,-0.0222816467285156,-0.0121952891349792
1663562603523088600,5.222088623046879,-0.0153536200523376,-0.015089988708496,0.0073658227920532
1663562603533087500,5.232087402343751,-0.0153312087059021,-0.0151014328002929,0.0073474049568176
1663562603543086300,5.2420864257812525,-0.0054165720939636,-0.0102968215942382,-0.0115047097206115
1663562603553085200,5.252085205078124,0.0374398231506347,-0.0055294036865234,-0.0067534446716308
1663562603563084000,5.262083984375003,0.0373181700706481,-0.0055446624755859,-0.0066108107566833
1663562603573083000,5.272082763671875,0.0104328989982604,-0.0056066513061523,-0.0062524676322937
1663562603583081700,5.282081787109377,0.0057929754257202,-0.0223731994628906,-0.0082050561904907
1663562603593080800,5.292080810546878,0.0058673024177551,-0.0223827362060546,-0.0080950260162353
1663562603603079700,5.30207958984375,-0.0132988691329956,-0.0271625518798828,0.0181351900100708
1663562603613078500,5.312078613281251,-0.0035226345062255,-0.0007743835449218,0.024825632572174
1663562603623077400,5.322077392578123,0.0156226754188537,-0.0175275802612304,0.0171104073524475
1663562603633076200,5.332076171875002,0.0154163837432861,-0.0174932479858398,0.0167044401168823
1663562603643075000,5.342074951171874,-0.0109736323356628,-0.0174808502197265,-0.0052840709686279
1663562603653074000,5.352073974609375,0.0033876895904541,-0.0126895904541015,0.0090904831886291
1663562603663072800,5.362072753906254,0.0033854842185974,-0.0126848220825195,0.0090684294700622
1663562603673071600,5.372071533203126,0.0057445764541625,-0.0198907852172851,-0.0100584626197814
1663562603683070500,5.3820705566406275,0.0080807209014892,-0.0174951553344726,0.0115365386009216
1663562603693069300,5.392069335937499,0.0005918145179748,-0.0222654342651367,-0.0152507424354553
1663562603703068200,5.402068115234378,0.0004831552505493,-0.0222768783569335,-0.0152153968811035
1663562603713067000,5.41206689453125,0.0052332878112792,-0.0270853042602539,-0.0080238580703735
1663562603723065900,5.422065917968752,0.0051689147949218,-0.0270853042602539,-0.0080479979515075
1663562603733064700,5.4320646972656235,-0.0043451189994812,-0.0127105712890625,0.0015425682067871
1663562603743063600,5.4420634765625024,-0.0043609142303466,-0.0126981735229492,0.0015045404434204
1663562603753062400,5.452062500000004,0.0052366256713867,-0.0127182006835937,-0.0104309320449829
1663562603763061200,5.462061279296876,-0.0019212365150451,-0.007944107055664,0.0020337104797363
1663562603773060000,5.472060058593755,-0.0185822248458862,-0.015151023864746,0.0073180794715881
1663562603783058400,5.482058349609375,-0.0085907578468322,-0.0055627822875976,0.0124425292015075
1663562603793057300,5.492057373046876,0.0176199674606323,-0.0127496719360351,0.0316168069839477
1663562603803056400,5.502056396484377,0.0104265213012695,-0.0055456161499023,-0.0192269682884216
1663562603813055000,5.512054931640627,0.0103141069412231,-0.0055484771728515,-0.0191936492919921
1663562603823053800,5.522053710937499,0.0027782320976257,-0.0343027114868164,-0.0025780200958251
1663562603833052700,5.532052734375,-0.0023807883262634,-0.0175485610961914,0.0068792104721069
1663562603843051500,5.542051513671879,-0.0119034051895141,-0.0055723190307617,-0.0170401334762573
1663562603853050000,5.552050048828129,-0.0118191242218017,-0.0055913925170898,-0.0169467329978942
1663562603863049000,5.562049072265623,0.0097181797027587,-0.0223464965820312,0.0046253204345703
1663562603873047800,5.572047851562502,8.32080841064e-05,-0.0103740692138671,-0.0049853920936584
1663562603883046400,5.582046386718751,2.96831130981e-05,-0.0103816986083984,-0.0048955082893371
1663562603893045000,5.592044921875001,0.0096049308776855,-0.0127668380737304,-8.27312469482e-05
1663562603903043800,5.602043945312502,0.0095484256744384,-0.015172004699707,0.0047435164451599
1663562603913042400,5.612042480468752,0.0090838074684143,-0.0152006149291992,0.0044753551483154
1663562603923041300,5.6220412597656235,-0.0100659728050231,-0.0104007720947265,-0.0027416944503784
1663562603933039900,5.632039794921873,-0.0005512833595275,-0.0080175399780273,-0.0099015235900878
1663562603943038700,5.642038818359374,-0.00054532289505,-0.0080060958862304,-0.0099960565567016
1663562603953037300,5.652037353515624,-0.0006085038185119,-0.0103979110717773,-0.0004389882087707
1663562603963036200,5.662036132812503,-0.0006024837493896,-0.0104084014892578,-0.0004172325134277
1663562603973035000,5.672034912109375,-0.015031099319458,-0.0199851989746093,0.0163041949272155
1663562603983033600,5.682033691406254,-0.0151001811027526,-0.0199775695800781,0.0162080526351928
1663562603993032400,5.692032470703126,0.0112054944038391,-0.0271778106689453,-0.000529408454895
1663562604003031300,5.7020312500000045,0.0159394741058349,0.0039491653442382,0.0114122033119201
1663562604013029400,5.712029296875002,0.0155900716781616,0.0039606094360351,0.0110988616943359
1663562604023027500,5.72202734375,0.0127812623977661,-0.0104217529296875,-0.0083241462707519
1663562604033025300,5.7320253906250045,-0.0182834267616271,-0.0008430480957031,0.0085278749465942
1663562604043023000,5.74202319335938,0.0008249282836914,-0.0080232620239257,-0.0155006647109985
1663562604053022000,5.752021972656252,0.0054926872253417,0.0015439987182617,0.0012787580490112
1663562604063020500,5.762020507812501,0.0005821585655212,-0.0200138092041015,-0.01072758436203
1663562604073019100,5.772019042968751,0.0005274415016174,-0.0200128555297851,-0.0108150839805603
1663562604083018200,5.782018310546874,0.0077201128005981,-0.0008659362792968,-0.0083206892013549
1663562604093017000,5.792017089843753,-0.0090381503105163,-0.0176258087158203,-0.0251253843307495
1663562604103015700,5.802015625000003,-0.0017453432083129,-0.0200319290161132,-0.0030808448791503
1663562604113014500,5.812014648437504,-0.0064417719841003,-0.0152750015258789,0.0022699832916259
1663562604123013400,5.822013427734376,-0.0088828206062316,-0.0176639556884765,-0.0002183318138122
1663562604133012000,5.8320119628906255,0.0078646540641784,-0.0009078979492187,-0.0050442814826965
1663562604143010800,5.8420107421875045,0.0006473064422607,-0.0033082962036132,-0.0050131678581237
1663562604153009400,5.852009521484376,0.000515878200531,-0.0033216476440429,-0.0049972534179687
1663562604163008300,5.862008300781248,-0.0066508054733276,-0.0104961395263671,0.0020968317985534
1663562604173007000,5.872007080078127,-0.0138481855392456,-0.0272436141967773,0.0045188069343566
1663562604183005700,5.882005615234377,-0.0013599395751953,-0.0056629180908203,0.0068099498748779
1663562604193004500,5.892004638671878,-0.0013858675956726,-0.0200414657592773,-0.0291794538497924
1663562604203002600,5.902002685546876,-0.0082219839096069,-0.0080318450927734,0.0021424293518066
1663562604213001200,5.912001220703125,-0.0077109336853027,-0.0080251693725585,-0.0048689246177673
1663562604223000000,5.922000000000004,-0.0048374533653259,-0.0151891708374023,-0.006965160369873
1663562604232999000,5.931999023437498,-0.0162615180015563,0.0015735626220703,0.0029408931732177
1663562604242997500,5.941997558593748,-0.0138775706291198,-0.0080022811889648,0.0174030661582946
1663562604252996400,5.951996337890627,0.0058587789535522,-0.0199308395385742,-0.001902163028717
1663562604262995000,5.961994873046876,0.0039364099502563,-0.0031394958496093,0.0099748373031616
1663562604272993800,5.971993896484378,-0.0009081363677978,0.0064315795898437,0.0100043416023254
1663562604282992400,5.981992431640627,0.0039987564086914,-0.0007333755493164,0.0027825832366943
1663562604292991200,5.991991210937499,-0.0197570323944091,-0.010268211364746,0.004786193370819
1663562604302989800,6.001989746093749,-0.0007564425468444,-0.0198802947998046,0.0024722218513488
1663562604312989200,6.011989257812502,0.0158677697181701,-0.0150842666625976,-0.0023038983345031
1663562604322988500,6.021988525390626,0.0158997178077697,-0.0150518417358398,-0.002752661705017
1663562604332988200,6.031988281250001,-0.0223883986473083,-0.0222492218017578,-0.0051862001419067
1663562604342987800,6.041987792968754,-0.0220633149147033,-0.0222177505493164,-0.0053201913833618
1663562604352986600,6.051986572265626,-0.0240622162818908,-0.0149898529052734,0.0253316164016723
1663562604362985500,6.061985351562498,-0.0139638781547546,-0.0101232528686523,0.0174742341041564
1663562604372984600,6.071984619140629,0.0248200297355651,-0.0196294784545898,-0.0118933916091918
1663562604382983200,6.0819831542968785,0.0247653722763061,-0.0196485519409179,-0.0118243098258972
1663562604392982000,6.09198193359375,0.0031348466873168,-0.0028810501098632,0.0074716210365295
1663562604402980600,6.101980712890629,0.0055468678474426,-0.0100812911987304,-0.016436755657196
1663562604412979500,6.111979492187501,-0.0064802169799804,-0.0172691345214843,-0.0068304538726806
1663562604422978000,6.121978027343751,-0.006490409374237,-0.0172538757324218,-0.0069276094436645
1663562604432977000,6.13197680664063,0.0054907798767089,-0.0244331359863281,0.01225346326828
1663562604442975700,6.141975830078124,0.0078303217887878,-0.0340194702148437,0.0050448775291442
1663562604452974300,6.1519743652343735,-0.0065719485282897,-0.0172624588012695,-0.0093507170677185
1663562604462973200,6.1619731445312524,0.0102359056472778,-0.0052986145019531,0.0050888061523437
1663562604472972000,6.171971923828124,0.0101287961006164,-0.0053052902221679,0.0051246285438537
1663562604482970600,6.181970703125003,0.0100485682487487,-0.0076913833618164,0.0003641247749328
1663562604492969500,6.191969482421875,-0.0163488984107971,-0.0005149841308593,-0.0092566609382629
1663562604502968800,6.201968749999999,0.0100026726722717,-0.0101070404052734,-0.0283992886543273
1663562604512967700,6.2119677734375,0.0218971967697143,-0.0077295303344726,0.0104304552078247
1663562604522966500,6.221966552734379,-0.0020243525505065,-0.012526512145996,0.0056031942367553
1663562604532965000,6.231965087890629,-0.0090361833572387,-0.019683837890625,0.0007963776588439
1663562604542964000,6.241963867187501,-0.0039889812469482,-0.0029220581054687,0.0151821970939636
1663562604552962800,6.251962890625002,-0.0040079355239868,-0.0029115676879882,0.0151526927947998
1663562604562961400,6.2619614257812515,-0.004057765007019,-0.0101003646850585,-0.006370723247528
1663562604572960300,6.271960205078123,0.0030624270439147,-0.0196809768676757,0.0127532482147216
1663562604582959000,6.281958984375002,-0.0064290165901184,-0.0029249191284179,-0.0231320261955261
1663562604592958000,6.291958007812504,-0.0135198235511779,-0.000518798828125,-0.0039626359939575
1663562604602957000,6.301957031249998,-0.0039991736412048,-0.0196714401245117,0.0031726360321044
1663562604612956000,6.311955810546884,-0.0064290165901184,-0.0101003646850585,0.0006921887397766
1663562604622955000,6.321955078125001,-0.0066088438034057,-0.0101118087768554,0.000716745853424
1663562604632954000,6.331954101562502,0.0148854255676269,-0.007720947265625,-0.0113391280174255
1663562604642953000,6.341952880859374,0.0005125999450683,-0.0053167343139648,-0.0113147497177124
1663562604652952000,6.351952148437505,0.0076836347579956,-0.0029249191284179,-0.0017235875129699
1663562604662951200,6.361951171874999,0.0025982856750488,-0.0029821395874023,-0.0108012557029724
1663562604672950300,6.3719501953125,0.0001238584518432,-0.000579833984375,0.0011975169181823
1663562604682949400,6.381949462890624,0.0024044513702392,-0.0125741958618164,-0.010694146156311
1663562604692948500,6.3919484863281255,0.002352237701416,-0.0125837326049804,-0.0106105208396911
1663562604702947300,6.4019472656250045,-0.0118318200111389,-0.0125703811645507,0.020493745803833
1663562604712946400,6.411946533203128,-0.0069760084152221,-0.0125589370727539,0.001247227191925
1663562604722945500,6.42194555664063,0.0193232893943786,-0.0197553634643554,-0.0057851672172546
1663562604732944600,6.431944580078124,0.0191280841827392,-0.0197649002075195,-0.0057594180107116
1663562604742943700,6.441943847656255,0.0136843919754028,-0.0126152038574218,0.0036689043045043
1663562604752942800,6.451942871093749,-0.0107893347740173,-0.010237693786621,0.0035489201545715
1663562604762942000,6.46194189453125,-0.0106720328330993,-0.0102291107177734,-0.0083896517753601
1663562604772941000,6.471941162109374,0.0014214515686035,-0.0126228332519531,-0.0203431248664855
1663562604782940200,6.4819401855468755,-0.00091153383255,-0.0197992324829101,-0.005933940410614
1663562604792939300,6.491939208984377,-0.0010135173797607,-0.0198392868041992,-0.0053684115409851
1663562604802938400,6.501938476562501,-0.0035237073898315,-0.0102710723876953,-0.014987289905548
1663562604812937500,6.511937500000002,-0.0011244416236877,-0.0270299911499023,0.0136975049972534
1663562604822936600,6.521936523437503,-0.0011767745018005,-0.02703857421875,0.0136709213256835
1663562604832935700,6.531935791015627,0.0035503506660461,-0.0198602676391601,-0.0007237792015075
1663562604842934800,6.541934814453128,-0.0130788683891296,-0.0078992843627929,-0.0073698163032531
1663562604852934000,6.55193383789063,-0.0130099058151245,-0.0079002380371093,-0.007304310798645
1663562604862932700,6.561932617187502,-0.0028606057167053,-0.0031013488769531,-0.0047333240509033
1663562604872931800,6.571931884765625,0.0115710496902465,-0.012664794921875,0.0024760365486145
1663562604882931000,6.581930908203127,-0.0100380778312683,-0.031829833984375,0.0049574375152587
1663562604892929800,6.591929687499999,0.0042735934257507,-0.0270318984985351,-0.0023125410079956
1663562604902928600,6.6019287109375,0.0162368416786193,-0.005476951599121,6.00814819335e-05
1663562604912927500,6.611927490234379,0.0018997192382812,-0.0054817199707031,-9.29236412048e-05
1663562604922926300,6.621926269531251,0.0114713907241821,0.006500244140625,0.0143013596534729
1663562604932925200,6.631925292968752,0.0114713907241821,0.0064916610717773,0.0143319964408874
1663562604942924000,6.641924072265624,0.0015439391136169,-0.0102767944335937,-0.0266974568367004
1663562604952922600,6.651922607421874,-0.0080328583717346,-0.0222539901733398,-0.0003163814544677
1663562604962921500,6.661921386718753,-0.0080201029777526,-0.0222578048706054,-0.000358760356903
1663562604972920000,6.671920166015624,0.0014290809631347,-0.0174636840820312,0.002018928527832
1663562604982919000,6.681918945312503,0.0200623273849487,0.0016727447509765,0.01133793592453
1663562604992917800,6.691917724609375,-0.0061296820640563,-0.0174808502197265,-0.0150275826454162
1663562605002916400,6.701916259765625,-0.0039930343627929,-0.0007429122924804,-0.0002698898315429
1663562605012914400,6.711914550781252,-0.0038731694221496,-0.0007276535034179,-0.000364601612091
1663562605022912300,6.721912353515627,0.0009765028953552,-0.0174837112426757,0.0020594000816345
1663562605032910300,6.731910400390625,0.0009291172027587,-0.0174856185913085,0.0020151138305664
1663562605042908400,6.741908447265629,0.0252842903137207,-0.0078792572021484,0.0210170149803161
1663562605052906200,6.751906250000005,-0.0228165388107299,-0.0222387313842773,-0.0056833028793334
1663562605062904800,6.761904785156254,-0.0226609706878662,-0.0222225189208984,-0.0057201385498046
1663562605072904700,6.771904785156252,-8.17775726318e-05,-0.0029811859130859,-0.0060376524925231
1663562605082903600,6.781903564453124,0.0073802471160888,-0.0412788391113281,-0.0084887146949768
1663562605092901600,6.791901611328129,0.0076377391815185,-0.041274070739746,-0.0083716511726379
1663562605102900500,6.801900390625001,0.0075727105140686,-0.0149316787719726,0.0083045959472656
1663562605112899000,6.81189916992188,0.0075293183326721,-0.014937400817871,0.0082737207412719
1663562605122898000,6.8218979492187515,0.000276505947113,-0.0316934585571289,-0.0180317759513854
1663562605132896800,6.831896728515623,0.0001783370971679,-0.0077590942382812,0.0154582262039184
1663562605142895400,6.841895263671873,0.0261639952659606,0.0018062591552734,0.0200235247611999
1663562605152894200,6.851894287109374,0.0088768005371093,-0.0054073333740234,-0.0159473419189453
1663562605162892800,6.861892822265624,0.0086051225662231,-0.005441665649414,-0.0157933235168457
1663562605172891600,6.871891601562503,-0.0276329517364501,-0.0126504898071289,-0.0082889795303344
1663562605182890500,6.8818903808593745,-0.0131223797798156,-0.0054759979248046,-0.0174986720085144
1663562605192889000,6.8918891601562535,0.0111461877822875,-0.0222740173339843,-0.0120036005973815
1663562605202888000,6.901887939453125,0.0349531769752502,-0.0199165344238281,0.0291833281517028
1663562605212886500,6.911886474609375,0.0133262872695922,-0.0270900726318359,-0.0043080449104309
1663562605222885400,6.921885498046876,0.0128710865974426,-0.0271282196044921,-0.0042105913162231
1663562605232884200,6.931884277343748,-0.0253085494041442,-0.0151500701904296,-0.0137007236480712
1663562605242882800,6.941882812500005,-0.0085477232933044,-0.0055799484252929,-0.0016480684280395
1663562605252881700,6.951881591796877,0.0272262096405029,-0.0103721618652343,0.0007015466690063
1663562605262880500,6.961880615234378,0.0271204113960266,-0.0103759765625,0.0006688237190246
1663562605272879000,6.9718791503906274,0.0128200650215148,0.0087852478027343,-0.0089325308799743
1663562605282878000,6.981877929687499,-0.0210824608802795,-0.0104103088378906,-0.0111874341964721
1663562605292876500,6.991876464843749,-0.0186423659324646,-0.0032196044921875,-0.0015752911567687
1663562605302875400,7.00187548828125,0.0008581280708312,-0.0032253265380859,0.0084146261215209
1663562605312874800,7.011874755859374,0.0151697993278503,-0.0104007720947265,0.0012174248695373
1663562605322874400,7.021874267578127,0.0103315711021423,0.0039567947387695,0.0084102153778076
1663562605332874000,7.031874023437503,0.0103788375854492,0.0039529800415039,0.0084989070892333
1663562605342873300,7.0418732910156265,0.000878632068634,-0.0032320022583007,-0.0081774592399597
1663562605352873000,7.051873046875002,-0.0014582872390747,0.001565933227539,-0.0010369420051574
1663562605362871800,7.061871826171874,-0.0181513428688049,-0.0223760604858398,0.0061744451522827
1663562605372869400,7.071869384765627,-0.0086358189582824,-0.0271673202514648,0.0036776661872863
1663562605382868000,7.081867919921876,0.0084742307662963,-0.0127735137939453,0.0035195350646972
1663562605392867300,7.09186743164063,0.0082307457923889,-0.0127849578857421,0.0035382509231567
1663562605402866200,7.1018662109375015,0.0296499729156494,0.0015630722045898,0.0084628462791442
1663562605412865000,7.111864990234373,-0.0039097070693969,-0.000838279724121,-0.0034294128417968
1663562605422863600,7.121863525390623,-0.0110361576080322,-0.0127973556518554,0.0013166069984436
1663562605432862500,7.131862548828124,-0.011027455329895,-0.0128068923950195,0.0012919306755065
1663562605442861000,7.141861083984374,0.0057395100593566,-0.0151634216308593,0.0078394412994384
1663562605452860000,7.151859863281253,0.0247821807861328,-0.0151615142822265,0.0173847079277038
1663562605462858800,7.1618586425781245,0.0195969939231872,-0.0031862258911132,-0.0070372223854064
1663562605472857300,7.1718574218750035,-0.0002360939979553,0.0015840530395507,0.0140401721000671
1663562605482856200,7.181856201171875,-0.0126829743385314,-0.005589485168457,-0.0081739425659179
1663562605492855000,7.191854980468754,-0.0101648569107055,-0.0151643753051757,-0.0105547308921813
1663562605502853600,7.201853515625004,0.0232824087142944,-0.0175552368164062,-0.0033409595489501
1663562605512852500,7.211852539062498,0.0088881254196167,-0.0151786804199218,0.0086567401885986
1663562605522851300,7.221851318359377,0.0089454054832458,-0.0151729583740234,0.0086731314659118
1663562605532850000,7.231849853515627,-0.0124723315238952,-0.007979393005371,0.0206217765808105
1663562605542848800,7.241848876953128,-0.0071853995323181,-0.0103139877319335,0.0083169937133789
1663562605552847400,7.2518474121093774,0.0074768662452697,-0.0174684524536132,0.0080471038818359
1663562605562846200,7.261846191406249,0.0004498362541198,-0.0006675720214843,-0.0187836289405822
1663562605572844800,7.271844726562499,0.0100317597389221,-0.0078420639038085,0.0291287899017334
1663562605582843600,7.28184375,-0.0114166736602783,-0.0006361007690429,-0.0360413193702697
1663562605592842500,7.291842529296879,-0.0109091997146606,-0.0006065368652343,-0.0357946157455444
1663562605602841300,7.301841308593751,-0.0318462252616882,0.0018043518066406,0.0001657009124755
1663562605612840000,7.3118398437500005,-0.0074234008789062,-0.0053720474243164,-0.0185925960540771
1663562605622838800,7.321838867187502,9.84668731689e-05,-0.0125389099121093,0.0054917335510253
1663562605632837600,7.331837646484374,0.0071560740470886,-0.0173263549804687,0.0031764507293701
1663562605642836200,7.341836181640623,0.0075718164443969,-0.017303466796875,0.0031790733337402
1663562605652835000,7.351834960937502,0.0385816693305969,0.0066213607788085,0.0129506587982177
1663562605662833700,7.361833740234374,-0.0052599906921386,-0.0101842880249023,0.0151799917221069
1663562605672832500,7.371832519531253,-0.0056299567222595,-0.0101804733276367,0.0146803855895996
1663562605682831600,7.381831542968754,-0.0148714184761047,-0.0197038650512695,0.0045113563537597
1663562605692830500,7.391830566406249,0.0334129929542541,-0.0483636856079101,-0.0034556984901428
1663562605702829300,7.401829345703128,0.0331414341926574,-0.0483484268188476,-0.0038755536079406
1663562605712828400,7.411828369140629,-0.0072643160820007,-0.0076456069946289,-0.0372106432914733
1663562605722827300,7.421827148437501,0.0010802149772644,0.0378704071044921,-0.0338367819786071
1663562605732826400,7.431826416015625,-0.0297394394874572,-0.0004940032958984,-0.0038667917251586
1663562605742825500,7.441825439453126,-0.0294613242149353,-0.0005273818969726,-0.0028426647186279
1663562605752824600,7.451824462890627,0.0372971296310424,-0.0173158645629882,0.0308580994606018
1663562605762823700,7.461823730468751,0.0366529822349548,-0.0173454284667968,0.0304805040359497
1663562605772822500,7.471822509765623,0.0311031937599182,-0.0461015701293945,0.0085058212280273
1663562605782821600,7.481821533203124,-0.0285773873329162,-0.0460376739501953,0.0196828842163085
1663562605792820700,7.491820800781248,-0.0207263827323913,-0.0029010772705078,-0.0497498512268066
1663562605802819800,7.5018198242187495,-0.0201371312141418,-0.0029115676879882,-0.0488542318344116
1663562605812818700,7.5118186035156285,0.0369759202003479,0.0161418914794921,-0.0402808785438537
1663562605822817800,7.521817871093752,0.0286241173744201,-0.0294790267944335,0.0060610175132751
1663562605832817000,7.531816894531254,-0.0440154075622558,-0.0199718475341796,0.0327345728874206
1663562605842816000,7.541815917968748,-0.070443570613861,-0.0271310806274414,0.0035863518714904
1663562605852815000,7.551815185546879,-0.069407045841217,-0.0270633697509765,0.0033571720123291
1663562605862814200,7.561814208984373,0.0480274558067321,-0.01025390625,0.0051677227020263
1663562605872813000,7.571812988281252,0.0642001032829284,-0.0102777481079101,-0.0286475419998168
1663562605882812200,7.581812255859376,0.0630871057510376,-0.0103578567504882,-0.0284987688064575
1663562605892811300,7.591811279296884,0.0287024974822998,-0.0152311325073242,-0.0351741313934326
1663562605902810400,7.601810302734378,-0.0333310365676879,-0.0008563995361328,-0.0156040787696838
1663562605912809500,7.611809570312502,-0.0177751779556274,-0.02471923828125,-0.0038042068481445
1663562605922808300,7.621808349609374,-0.0172587037086486,-0.0246925354003906,-0.0037963390350341
1663562605932807400,7.631807373046875,0.0846425294876098,-0.0127754211425781,-0.0089749097824096
1663562605942806500,7.641806640624999,0.0830830931663513,-0.0128374099731445,-0.0092735886573791
1663562605952805600,7.6518056640625005,-0.0823821425437927,-0.0152292251586914,-0.0216205716133117
1663562605962804500,7.6618044433593795,-0.0818988680839538,-0.0152063369750976,-0.0216160416603088
1663562605972803600,7.671803466796874,0.0339065790176391,-0.0103626251220703,-0.0334594845771789
1663562605982802400,7.681802490234375,0.0337015390396118,-0.0104150772094726,-0.0328585505485534
1663562605992801300,7.691801269531254,0.0301863551139831,-0.0153083801269531,0.0441889762878418
1663562606002800000,7.701800048828126,0.0293574333190917,-0.0153284072875976,0.0437473654747009
1663562606012798200,7.711798095703124,-0.0826179385185241,-0.0081119537353515,0.0078559517860412
1663562606022796300,7.721796386718751,-0.0383762121200561,-0.0056276321411132,0.0074327588081359
1663562606032794400,7.731794433593748,-0.0373153090476989,-0.0055370330810546,0.0070732831954956
1663562606042792200,7.7417922363281235,0.0561416745185852,-0.0055313110351562,0.0071896314620971
1663562606052790000,7.751790039062499,0.0292569994926452,-0.0031766891479492,-0.0192465186119079
1663562606062788000,7.7617880859375035,0.028893768787384,-0.003204345703125,-0.0190600752830505
1663562606072787000,7.771786865234375,-0.0312507152557373,-0.0271720886230468,0.0171136260032653
1663562606082785300,7.781785400390625,-0.0313042402267456,-0.0271844863891601,0.017146348953247
1663562606092783900,7.791783935546874,-0.0310328006744384,-0.0367355346679687,0.0120519399642944
1663562606102782700,7.801782714843753,0.0364726781845092,-0.0222949981689453,0.0184422135353088
1663562606112781300,7.811781250000003,0.0005760192871093,-0.0007123947143554,-0.0155428647994995
1663562606122780200,7.821780273437504,0.0006575584411621,0.0280494689941406,-0.0159214735031127
1663562606132779000,7.831779052734376,-0.0183236598968505,0.0017290115356445,-0.0183531045913696
1663562606142777600,7.8417775878906255,-0.0183098316192626,0.0017290115356445,-0.018454372882843
1663562606152776400,7.8517763671875045,-0.0155456066131591,0.0089006423950195,0.0157684683799743
1663562606162775000,7.861775146484376,-0.0151567459106445,0.0089197158813476,0.0158494114875793
1663562606172774000,7.871773925781248,0.0088770389556884,-0.0174188613891601,0.0206102132797241
1663562606182772700,7.881772705078127,0.0020832419395446,-0.0197610855102539,0.0180001854896545
1663562606192771300,7.891771240234377,-0.0048608779907226,-0.0149707794189453,-0.022684097290039
1663562606202770200,7.901770263671878,-0.0165945887565612,0.0113716125488281,-0.0104024410247802
1663562606212768800,7.911768798828128,-0.0137487649917602,-0.0317201614379882,0.0043495893478393
1663562606222767600,7.921767578124999,0.02032071352005,-0.0173311233520507,0.0260725021362304
1663562606232766500,7.931766357421878,0.0200746655464172,-0.0173416137695312,0.0259814262390136
1663562606242765000,7.94176513671875,0.02002614736557,-0.0029783248901367,-0.0004715919494628
1663562606252764000,7.951763916015629,-0.0134926438331604,-0.0197324752807617,-0.0004435181617736
1663562606262762800,7.961762695312501,-0.0063100457191467,-0.0101613998413085,-0.0004715919494628
1663562606272761300,7.971761230468751,0.0080156326293945,-0.0005884170532226,-0.0100427865982055
1663562606282760200,7.981760253906252,0.0150108933448791,-0.0125818252563476,-0.0123080015182495
1663562606292759000,7.991759033203124,0.0148757100105285,-0.0125837326049804,-0.01222425699234
1663562606302757600,8.001757568359373,0.0172239542007446,-0.0077857971191406,-0.0051845908164978
1663562606312757000,8.011757080078127,-0.0094272494316101,-0.0197772979736328,0.0163101553916931
1663562606322756600,8.021756591796873,-0.0044296383857727,-0.0125970840454101,0.0019075870513916
1663562606332756000,8.031755859375004,-0.0044857859611511,-0.0125932693481445,0.0019474625587463
1663562606342755800,8.041755859375002,0.007352590560913,0.0017566680908203,0.0117196440696716
1663562606352755500,8.051755371093748,-0.0046718716621398,-0.0126209259033203,0.0022948384284973
1663562606362754600,8.061754638671879,-0.0069732069969177,-0.0222043991088867,-0.0025356411933898
1663562606372753400,8.07175341796875,0.0049991607666015,-0.0030345916748046,0.0116718411445617
1663562606382752500,8.081752441406252,0.0144422054290771,-0.007817268371582,-0.0051309466361999
1663562606392751400,8.091751464843753,0.0239563584327697,0.0065393447875976,-0.0170775055885314
1663562606402750000,8.101750000000003,0.0234884619712829,0.0064992904663085,-0.0169660449028015
1663562606412748800,8.111748779296875,-0.0074983239173889,-0.0102500915527343,0.0046638846397399
1663562606422747600,8.121747558593754,-0.0049766302108764,-0.0102558135986328,0.009468674659729
1663562606432746200,8.131746337890625,-0.0265309214591979,-0.0246000289916992,0.0022618174552917
1663562606442745000,8.141745117187504,0.0189664959907531,-0.0246143341064453,0.0262380242347717
1663562606452743700,8.151743652343754,0.0188581347465515,-0.0246047973632812,0.0260793566703796
1663562606462742500,8.161742431640626,0.0422096848487854,0.0017175674438476,0.0087637305259704
1663562606472741000,8.171741210937505,-0.0011702179908752,0.0040950775146484,-0.0008611679077148
1663562606482740000,8.181739990234377,-0.0109689831733703,-0.005467414855957,-0.0201719999313354
1663562606492738600,8.191738525390626,-0.0134090185165405,-0.0270271301269531,-0.0057101845741271
1663562606502737400,8.201737304687498,-0.0088387131690979,-0.034219741821289,0.0204100012779235
1663562606512736000,8.211736083984377,0.0006371736526489,-0.0222368240356445,0.0321176052093505
1663562606522734800,8.221734863281249,0.00803142786026,-0.0293855667114257,0.0099345445632934
1663562606532733400,8.231733398437498,0.0082482695579528,-0.0293331146240234,0.0095443725585937
1663562606542732300,8.241732177734377,0.0059777498245239,0.0089673995971679,-0.0166108012199401
1663562606552731100,8.251731201171879,0.0060262084007263,0.0089778900146484,-0.0165247321128845
1663562606562729700,8.261729736328128,0.0107303857803344,-0.0053977966308593,9.04202461242e-05
1663562606572728600,8.271728515625,-0.0086106061935424,-0.0197668075561523,0.0047221779823303
1663562606582727400,8.281727539062501,-0.025410771369934,-0.0484876632690429,0.0165367126464843
1663562606592726000,8.29172607421875,-0.024965763092041,-0.0484542846679687,0.0163893699645996
1663562606602724900,8.301724853515623,0.0037660002708435,-0.0077648162841796,-0.0001711249351501
1663562606612723700,8.311723632812502,0.0252526402473449,0.0041875839233398,-0.0166787505149841
1663562606622722300,8.321722412109374,0.0277847051620483,0.008981704711914,0.0002216696739196
1663562606632721200,8.331721191406253,-0.0198981165885925,-0.0125551223754882,0.0169594287872314
1663562606642719700,8.341719726562502,-0.0270017385482788,-0.0173330307006835,-0.0095848441123962
1663562606652718600,8.351718505859374,-0.0120168924331665,-0.0196762084960937,-0.0120955109596252
1663562606662717400,8.361717529296875,0.0098741054534912,-0.0052957534790039,0.0022793412208557
1663562606672716000,8.371716064453125,0.0169853568077087,-0.0220489501953125,-0.0120085477828979
1663562606682715000,8.381714843750004,0.0170543193817138,-0.0220699310302734,-0.0117766261100769
1663562606692713700,8.391713623046876,0.0074226856231689,0.013803482055664,-0.0159597992897033
1663562606702712300,8.401712402343755,0.0072852373123168,0.013772964477539,-0.0154463052749633
1663562606712711200,8.411711181640626,-0.0001192092895507,0.0041418075561523,-0.0077950358390808
1663562606722710000,8.421709960937498,-0.0097522139549255,-0.0102119445800781,0.0231322646141052
1663562606732708600,8.431708496093748,0.0068821310997009,-0.0221738815307617,0.0133979320526123
1663562606742707500,8.44170751953125,-0.002610445022583,-0.0149898529052734,-0.0202248692512512
1663562606752706000,8.451706054687499,-0.0025696158409118,-0.0054025650024414,-0.0034109950065612
1663562606762705000,8.461704833984378,0.0096015930175781,-0.0197744369506835,-0.0152956247329711
1663562606772703700,8.471703857421879,-0.0070493221282958,-0.003005027770996,-0.0080253481864929
1663562606782702600,8.481702636718751,-0.0045238137245178,-0.0125713348388671,-0.0056128501892089
1663562606792701400,8.491701416015623,0.0001651048660278,-0.0101919174194335,0.0159600377082824
1663562606802700500,8.501700439453124,0.0143566727638244,-0.0245561599731445,-0.0128403306007385
1663562606812699400,8.511699462890626,0.0094523429870605,-0.0221662521362304,-0.0057582855224609
1663562606822698200,8.521698242187504,-0.0002418756484985,-0.0245552062988281,-0.0057935118675231
1663562606832697000,8.531697021484376,-0.0002505779266357,-0.0245628356933593,-0.0057802200317382
1663562606842696000,8.541696044921878,-0.0168327689170837,-0.0053997039794921,-0.0224087834358215
1663562606852694800,8.55169482421875,-0.021543264389038,-0.0006437301635742,-0.0002291202545166
1663562606862693600,8.561693603515629,0.016665756702423,-0.0078411102294921,0.0237287878990173
1663562606872692500,8.5716923828125,-0.0074854493141174,-0.0198316574096679,0.014190137386322
1663562606882691300,8.581691406250002,0.0119802951812744,-0.0293436050415039,0.0086742639541625
1663562606892690200,8.591690185546874,0.0118654370307922,-0.0293436050415039,0.0086883306503295
1663562606902689000,8.601688964843753,-0.031203269958496,-0.026956558227539,0.0326553583145141
1663562606912687900,8.611687988281254,0.0146294236183166,-0.0221281051635742,0.0035266876220703
1663562606922686700,8.621686767578126,0.0145885348320007,0.0114088058471679,-0.0255102515220642
1663562606932685600,8.631685546874998,0.0144571661949157,0.011397361755371,-0.0254461169242858
1663562606942684400,8.641684326171884,-0.0021798014640808,-0.0101499557495117,-0.0182461142539978
1663562606952683300,8.651683349609378,-0.0025762915611267,-0.0101776123046875,0.0008804202079772
1663562606962682000,8.66168212890625,-0.0025049448013305,-0.0101690292358398,0.0008003711700439
1663562606972681000,8.671680908203129,0.0022757649421691,-0.0173282623291015,0.0054917335510253
1663562606982679800,8.6816796875,0.028694748878479,-0.0149106979370117,0.0147344470024108
1663562606992678700,8.691678710937502,0.038215696811676,-0.0053443908691406,-0.0042671561241149
1663562607002677500,8.701677490234374,-0.0149731636047363,-0.0197305679321289,-0.0236329436302185
1663562607012675800,8.711675781250001,-0.0003965497016906,-0.0077543258666992,0.0097302198410034
1663562607022673700,8.721673583984376,-0.0100535750389099,-0.0197210311889648,-0.0213075876235961
1663562607032671700,8.731671630859374,0.0183364748954772,-0.0245580673217773,0.0078562498092651
1663562607042669600,8.741669677734379,0.0109180212020874,-0.0245571136474609,0.0197417736053466
1663562607052668000,8.751667968749999,0.0105059146881103,-0.0245704650878906,0.0193932652473449
1663562607062666000,8.761666015625003,-0.0109230875968933,-0.0078115463256835,-0.0141125321388244
1663562607072664600,8.771664550781253,0.020189881324768,0.0017604827880859,0.014810025691986
1663562607082663400,8.781663330078125,0.0199898481369018,0.0017528533935546,0.0144936442375183
1663562607092661800,8.791661865234374,0.0151390433311462,-0.0126047134399414,-0.0214656591415405
1663562607102660400,8.801660400390624,0.0148545503616333,-0.0126228332519531,-0.0214051604270935
1663562607112659200,8.811659179687503,-0.0304476618766784,-0.0030269622802734,-0.0167776942253112
1663562607122658000,8.821657958984375,-0.0440924763679504,-0.0293292999267578,-0.0021803975105285
1663562607132656600,8.831656738281254,0.0257421135902404,-0.0053672790527343,0.0001934766769409
1663562607142655200,8.841655273437503,0.0303534865379333,0.0041780471801757,-0.0042939186096191
1663562607152654000,8.851654052734375,0.0303394198417663,0.0041790008544921,-0.0040963292121887
1663562607162653000,8.861652832031254,-0.0538542866706848,-0.0293350219726562,-0.0118089318275451
1663562607172651500,8.871651611328126,-0.0154730677604675,-0.014988899230957,-0.0308812856674194
1663562607182650400,8.881650390624998,-0.0150331258773803,-0.014967918395996,-0.0306467413902282
1663562607192649000,8.891648925781254,0.0233277678489685,-0.0173826217651367,-0.0254749059677124
1663562607202647000,8.901646972656252,0.0231556296348571,-0.0173749923706054,-0.0255669951438903
1663562607212646000,8.911645996093753,-0.0297334790229797,-0.0222015380859375,-0.0012776255607604
1663562607222644700,8.921644775390625,-0.010444700717926,-0.0078296661376953,0.0035421848297119
1663562607232643300,8.931643310546875,0.0183239579200744,-0.0150041580200195,0.0131366848945617
1663562607242642200,8.941642089843754,0.0182219147682189,-0.0150251388549804,0.0132890939712524
1663562607252640800,8.951640869140626,0.0273385047912597,-0.0006914138793945,0.0036510825157165
1663562607262639600,8.961639648437504,-0.0467543005943298,-0.005472183227539,-0.0106276273727417
1663562607272638500,8.971638427734376,-0.0466331839561462,-0.0054740905761718,-0.0106147527694702
1663562607282637000,8.981636962890633,0.0444908142089843,-0.019841194152832,0.0040727853775024
1663562607292636000,8.991635986328127,0.0510039329528808,-0.0270700454711914,-0.0124894976615905
1663562607302634800,9.001634765624999,-0.0216864943504333,-0.0056018829345703,0.0117135047912597
1663562607312634000,9.011634033203123,-0.0480074882507324,-0.010390281677246,0.0070205330848693
1663562607322633700,9.021633789062498,-0.0477052330970764,-0.0103816986083984,0.0071589350700378
1663562607332633000,9.03163305664063,-0.0138128995895385,-0.019937515258789,0.0094655752182006
1663562607342633000,9.041633056640634,0.0313583612442016,-0.0055732727050781,-0.004811942577362
1663562607352632300,9.051632324218751,0.0306811928749084,-0.0056285858154296,-0.0048806071281433
1663562607362632000,9.061631835937504,-0.0295922756195068,-0.0199956893920898,0.0044175386428833
1663562607372630500,9.071630615234376,-0.0292785763740539,-0.0199651718139648,0.0042154192924499
1663562607382629400,9.081629394531248,-0.0544394254684448,-0.0150737762451171,-0.0345370173454284
1663562607392628500,9.09162841796875,-0.0531947016716003,-0.0150260925292968,-0.0342389345169067
1663562607402627300,9.10162744140625,0.1252752542495727,-0.0150976181030273,0.0187563896179199
1663562607412626000,9.1116259765625,0.0442927479743957,-0.015233039855957,-0.0028169751167297
1663562607422624800,9.12162475585938,0.0428035259246826,-0.0153169631958007,-0.0026928782463073
1663562607432623600,9.131623535156251,-0.0507999658584594,0.0062065124511718,-0.0002918243408203
1663562607442622200,9.141622314453123,-0.0575069189071655,0.0110416412353515,0.016183316707611
1663562607452621000,9.151621093750002,0.0570817589759826,-0.02728271484375,0.0257176756858825
1663562607462619600,9.161619628906251,0.0562223196029663,-0.027313232421875,0.0251948237419128
1663562607472618500,9.171618408203123,-0.0117741227149963,-0.0273551940917968,-0.0109630227088928
1663562607482617300,9.181617431640625,-0.0114552974700927,-0.0273418426513671,-0.0109575986862182
1663562607492616000,9.191615966796874,-0.0418327450752258,-0.0201215744018554,-0.0203250050544738
1663562607502615300,9.201615234374998,-0.0762777328491211,0.0206365585327148,-0.0077677369117736
1663562607512614100,9.2116142578125,0.0586391687393188,0.0206727981567382,0.0189466476440429
1663562607522612700,9.221612792968749,0.0627235174179077,-0.0057048797607421,0.0117855668067932
1663562607532611600,9.231611572265628,0.0161078572273254,-0.0392942428588867,0.0188354849815368
1663562607542610200,9.241610107421884,-0.0683333277702331,-0.0321159362792968,-0.0105384588241577
1663562607552609000,9.251609130859379,-0.0674573183059692,-0.0320453643798828,-0.0107098817825317
1663562607562607600,9.261607666015628,-0.0684259533882141,-0.0247964859008789,-0.0224707722663879
1663562607572606500,9.2716064453125,0.0279556512832641,-0.000828742980957,-0.0052187442779541
1663562607582605000,9.28160498046875,0.0280501246452331,-0.000859260559082,-0.0047517418861389
1663562607592604000,9.29160400390625,0.0280514359474182,0.0039339065551757,0.0216030478477478
1663562607602602800,9.301602783203123,0.0274646282196044,0.0039081573486328,0.0211409330368042
1663562607612601300,9.31160131835938,-0.0275079011917114,-0.010406494140625,0.0373269915580749
1663562607622600200,9.321600097656251,-0.0270644426345825,-0.0103101730346679,0.0361049175262451
1663562607632599000,9.331599121093753,0.0237658023834228,-0.017409324645996,-0.0388643741607666
1663562607642597600,9.341597656250002,0.044889211654663,-0.0341930389404296,-0.0388656854629516
1663562607652596500,9.351596435546874,0.0347209572792053,-0.0079298019409179,-0.0002083778381347
1663562607662595300,9.361595214843753,0.0340234041213989,-0.0079717636108398,0.0001097321510314
1663562607672594000,9.371593994140625,-0.0301125049591064,0.0040149688720703,0.0144353508949279
1663562607682592800,9.381592773437504,-0.0369943976402282,-0.019902229309082,0.0072930455207824
1663562607692591400,9.391591308593753,-0.0362968444824218,-0.0198574066162109,0.0073407292366027
1663562607702590200,9.401590087890625,-0.0072578787803649,-0.0102396011352539,0.0234885811805725
1663562607712589000,9.411589111328126,0.0330672860145568,-0.0102443695068359,0.0042323470115661
1663562607722587600,9.421587646484376,0.0400498509407043,-0.0389833450317382,-0.0222683548927307
1663562607732586500,9.431586425781248,0.0227346420288085,-0.0078964233398437,0.00159353017807
1663562607742585300,9.44158544921875,-0.0348585844039917,-0.0223064422607421,0.0120022892951965
1663562607752584000,9.451583984374999,-0.0179564952850341,-0.0174970626831054,0.0214332342147827
1663562607762582800,9.461582763671885,0.0159485936164855,-0.0198841094970703,0.004693865776062
1663562607772581600,9.47158154296875,0.058840274810791,0.0088491439819335,0.0023643970489501
1663562607782580200,9.481580322265629,0.026914894580841,-0.0079536437988281,-0.0144974589347839
1663562607792579000,9.4915791015625,-0.0409286022186279,-0.0176038742065429,0.0359212160110473
1663562607802578000,9.50157788085938,-0.0406621694564819,-0.0175428390502929,0.0352187752723693
1663562607812576500,9.511576416015629,-0.0518081784248352,-0.0438032150268554,-0.0465075373649597
1663562607822575600,9.521575683593753,-0.0508032441139221,-0.0437688827514648,-0.04611337184906
1663562607832574500,9.531574462890624,0.0884009003639221,0.0041236877441406,-0.0028312802314758
1663562607842573600,9.541573486328126,0.0779392719268798,-0.0103120803833007,-0.0145022869110107
1663562607852572400,9.551572509765627,0.0766310691833496,-0.0104303359985351,-0.0139703750610351
1663562607862571500,9.561571533203129,-0.074323296546936,-0.0056409835815429,-0.0138736367225646
1663562607872570400,9.5715703125,-0.0278886556625366,-0.0223712921142578,0.0055975317955017
1663562607882569500,9.581569580078124,-0.0272243022918701,-0.0223302841186523,0.0056505799293518
1663562607892568600,9.591568603515618,-0.0074385404586791,-0.0366363525390625,0.0220279693603515
1663562607902567700,9.601567626953127,0.0431457757949829,0.0017213821411132,0.0263758301734924
1663562607912566500,9.611566406249999,0.0428906679153442,0.0017404556274414,0.0258329510688781
1663562607922565600,9.62156567382813,0.0282132625579834,0.0136737823486328,-0.0386136174201965
1663562607932564700,9.631564697265624,-0.04844331741333,-0.0366401672363281,-0.0166668891906738
1663562607942563800,9.641563720703118,-0.0479521751403808,-0.0366277694702148,-0.0161848068237304
1663562607952563000,9.651562988281249,0.0339300036430358,-0.0174312591552734,-0.0187276601791381
1663562607962561800,9.661561767578128,0.0840973854064941,-0.0102777481079101,0.019905149936676
1663562607972561000,9.67156079101563,0.082996666431427,-0.0103378295898437,0.0196625590324401
1663562607982560000,9.681560058593753,-0.0280763506889343,-0.0199222564697265,-0.009670615196228
1663562607992559000,9.691559082031254,-0.0277971029281616,-0.0199050903320312,-0.0098497867584228
1663562608002558200,9.701558105468749,-0.11043381690979,0.0136995315551757,-0.0124077796936035
1663562608012556500,9.711556640624998,0.0797626376152038,-0.0293550491333007,-0.00982666015625
1663562608022555000,9.721554931640625,0.0789389014244079,-0.029402732849121,-0.0097505450248718
1663562608032553000,9.731552978515623,0.1201894879341125,-0.0103912353515625,-0.0164307355880737
1663562608042551000,9.741551025390635,0.0023077130317687,0.0015163421630859,-0.0301668643951416
1663562608052549400,9.751549316406255,-0.0997796654701232,-0.0223884582519531,0.0035781264305114
1663562608062547500,9.761547363281252,-0.0886688232421875,-0.0414485931396484,0.0322338938713073
1663562608072546600,9.771546630859376,0.0840117931365966,-0.0102872848510742,-0.0016177892684936
1663562608082545700,9.781545654296885,0.0837034583091735,-0.0103158950805664,-0.0015434622764587
1663562608092544500,9.79154443359375,0.0494447946548461,0.0112180709838867,0.0124601125717163
1663562608102542800,9.801542968749999,-0.062989592552185,0.0064582824707031,0.0097322463989257
1663562608112541700,9.811541748046878,-0.0170561671257019,-0.0030841827392578,-0.0170534253120422
1663562608122540500,9.82154052734375,0.033339500427246,-0.0246000289916992,-0.0124254822731018
1663562608132539400,9.831539306640629,0.0328052043914794,-0.024641990661621,-0.0122837424278259
1663562608142538200,9.841538330078123,0.0490150451660156,-0.0247135162353515,-0.0357356071472168
1663562608152537000,9.851537109375002,-0.0519200563430786,-0.003204345703125,0.0077143311500549
1663562608162536000,9.861535888671874,-0.0511857867240905,-0.0031557083129882,0.0076826214790344
1663562608172534800,9.871534667968753,-0.0336583852767944,-0.0079154968261718,-0.0110449790954589
1663562608182533400,9.881533447265625,0.016416847705841,-0.0031557083129882,-0.0014446377754211
1663562608192532200,9.891532226562504,0.018574059009552,-0.0199308395385742,0.0057601332664489
1663562608202532000,9.90153198242188,-0.0054382681846618,-0.0390739440917968,0.0104616284370422
1663562608212530700,9.911530761718751,-0.0006001591682434,-0.0246925354003906,-0.0159928202629089
1663562608222529500,9.921529541015623,0.0285282135009765,-0.0103178024291992,-0.0181888341903686
1663562608232528100,9.93152807617188,0.0164883136749267,-0.0007438659667968,-0.0254188179969787
1663562608242527000,9.941526855468751,-0.000472068786621,-0.017561912536621,-0.0127428770065307
1663562608252525600,9.951525634765623,-0.0006990432739257,-0.0176076889038085,-0.0119397044181823
1663562608262524400,9.961524414062502,-0.0293553471565246,-0.017643928527832,0.041354477405548
1663562608272523000,9.971522949218752,-0.0240660905838012,-0.0080118179321289,0.031373381614685
1663562608282521900,9.981521972656253,-0.0090305209159851,-0.0199098587036132,0.0211092233657836
1663562608292520400,9.991520507812503,0.0059897899627685,-0.0030488967895507,0.0201608538627624
1663562608302519300,10.001519287109375,-0.0056523084640502,-0.0077791213989257,-0.0093665122985839
1663562608312518700,10.011518554687498,0.0331138372421264,-0.010110855102539,-0.0243375897407531
1663562608322518000,10.021518066406252,0.0353666543960571,-0.0005359649658203,-0.0410948395729064
1663562608332518000,10.031517822265627,0.0349141955375671,-0.0005960464477539,-0.0406484007835388
1663562608342517500,10.041517578125003,0.0033318996429443,-0.0102558135986328,-0.0300931930541992
1663562608352517000,10.051517089843749,-0.0370314717292785,-0.0198574066162109,-0.0148424506187438
1663562608362516700,10.061516845703125,-0.0004414916038513,-0.0413951873779296,0.0311424732208251
1663562608372515600,10.071515625000004,0.0261967182159423,-0.0222120285034179,0.0502355694770813
1663562608382514200,10.081514160156253,0.0284401774406433,-0.0173807144165039,0.0252914428710937
1663562608392513300,10.091513183593754,0.0281596183776855,-0.0173549652099609,0.02446711063385
1663562608402512600,10.1015126953125,-0.0196797251701354,-0.0101518630981445,-0.0310459733009338
1663562608412511500,10.11151147460938,-0.0171082615852355,-0.0221052169799804,-0.0238502025604248
1663562608422510000,10.121510009765629,0.0167790055274963,-0.038863182067871,-0.0210384130477905
1663562608432509000,10.131509033203123,0.0380414724349975,-0.0245380401611328,-0.0014342665672302
1663562608442507500,10.141507568359373,0.0351294875144958,-0.0197982788085937,0.0348333120346069
1663562608452506400,10.151506347656252,-0.0086892247200012,-0.0198526382446289,0.0227681398391723
1663562608462505200,10.161505126953124,-0.0089087486267089,-0.01983642578125,0.0223504900932312
1663562608472503800,10.171503906250003,0.0055751800537109,-0.0078687667846679,-0.0039138197898864
1663562608482502700,10.181502685546874,0.0053164958953857,-0.0078792572021484,-0.0037843585014343
1663562608492501500,10.191501464843753,0.0141370892524719,-0.0055389404296875,-0.0159112811088562
1663562608502499000,10.2014990234375,-0.0151134133338928,-0.0271186828613281,-0.0302298665046691
1663562608512498000,10.211497802734378,-0.0150510072708129,-0.0271158218383789,-0.030200183391571
1663562608522496500,10.22149658203125,-0.0102751851081848,-0.0199651718139648,-0.0199002027511596
1663562608532495400,10.231495361328129,0.023188829421997,-0.0055980682373046,0.0016775727272033
1663562608542494000,10.241493896484378,0.0131887197494506,-0.0104579925537109,0.0069636702537536
1663562608552492800,10.251492919921873,0.006006121635437,-0.020033836364746,0.0381754040718078
1663562608562491600,10.261491699218752,-0.0039648413658142,-0.008061408996582,0.0234162211418151
1663562608572490200,10.271490234375001,0.0052751302719116,-0.0248069763183593,-0.0036614537239074
1663562608582489000,10.281489013671873,0.021613597869873,-0.0223970413208007,0.0052513480186462
1663562608592487700,10.291487792968752,0.0019744038581848,-0.0080318450927734,-0.0190153717994689
1663562608602486500,10.301486572265624,0.0015802383422851,-0.0080509185791015,-0.0191138386726379
1663562608612485000,10.311485107421873,-0.0102489590644836,-0.020033836364746,-0.0095079541206359
1663562608622484000,10.321483886718752,-0.0197644829750061,-0.0248088836669921,0.0143926739692687
1663562608632482800,10.331482910156254,-0.016824722290039,-0.008005142211914,0.0165213346481323
1663562608642481400,10.341481445312503,0.052880048751831,0.0064010620117187,-0.0076923370361328
1663562608652480000,10.351479980468753,0.0335479378700256,-0.005584716796875,-0.0003072023391723
1663562608662478800,10.361478759765625,0.033072292804718,-0.005620002746582,-0.0005507469177246
1663562608672477400,10.371477539062504,-0.0433636307716369,-0.0343170166015625,0.0064870119094848
1663562608682476300,10.381476318359375,-0.0046981573104858,-0.0294876098632812,-0.0129694938659667
1663562608692475000,10.391474853515618,0.0364649295806884,-0.0126934051513671,-0.0132233500480651
1663562608702473700,10.401473632812504,0.0361819267272949,-0.0127191543579101,-0.0131356716156005
1663562608712472600,10.411472656249998,-0.0103241801261901,-0.0151863098144531,-0.0222194194793701
1663562608722471200,10.421471191406255,-0.0321547985076904,-0.0032815933227539,-0.0096693038940429
1663562608732470000,10.431469970703127,-0.0199872851371765,-0.0200576782226562,0.0147048234939575
1663562608742468900,10.441468749999999,0.0204269289970397,-0.0463876724243164,0.0192187428474426
1663562608752467500,10.451467529296885,0.020029067993164,-0.0464076995849609,0.0189546942710876
1663562608762466300,10.46146630859375,-0.0138479471206665,-0.027261734008789,-0.0053004622459411
1663562608772465200,10.471465087890628,-0.0470914244651794,-0.0104665756225585,-0.0198867321014404
1663562608782463700,10.481463623046878,-0.0288068056106567,0.0231294631958007,-0.0169711709022521
1663562608792462600,10.49146264648438,-0.0280773639678955,0.0231313705444335,-0.0164921283721923
1663562608802461200,10.501461181640629,0.0577887296676635,-0.00323486328125,-0.0159520506858825
1663562608812460000,10.5114599609375,0.056702435016632,-0.0033378601074218,-0.0153732299804687
1663562608822458600,10.52145874023438,-0.0533329844474792,-0.0392370223999023,0.020166277885437
1663562608832457500,10.531457519531251,-0.0531953573226928,-0.0392055511474609,0.0198896527290344
1663562608842456300,10.541456298828123,0.0074158906936645,-0.0128278732299804,0.0293924212455749
1663562608852455200,10.551455078125002,0.007984459400177,-0.0127687454223632,0.0289638042449951
1663562608862453800,10.561453857421874,0.0228064060211181,0.0040225982666015,-0.0165821313858032
1663562608872452600,10.571452636718753,0.0300401449203491,-0.0103330612182617,-0.0188677906990051
1663562608882451500,10.581451416015618,0.0296385288238525,-0.0103816986083984,-0.0185227394104003
1663562608892450000,10.591449951171874,-0.0064695477485656,-0.0247726440429687,0.0104592442512512
1663562608902449000,10.601448974609376,-0.0064889788627624,-0.0247631072998046,0.0100812315940856
1663562608912447700,10.611447753906248,-0.0205712914466857,-0.0270929336547851,0.035695731639862
1663562608922446600,10.621446533203127,-0.0219734907150268,-0.0437507629394531,0.0088307857513427
1663562608932445400,10.631445556640628,-0.0209549665451049,-0.0436573028564453,0.0082173347473144
1663562608942444300,10.6414443359375,0.0249136090278625,-0.0101184844970703,-0.0251232981681823
1663562608952443100,10.651443115234379,0.0247213244438171,0.0042028427124023,-0.0388274192810058
1663562608962442200,10.661442138671873,-0.0116198062896728,-0.0174446105957031,-0.0020498037338256
1663562608972441000,10.671441162109375,-0.0116211771965026,-0.0174455642700195,-0.0018538236618041
1663562608982440000,10.681439941406254,-0.0112069845199584,-0.0269775390625,0.0240627527236938
1663562608992438800,10.691438720703118,0.0250131487846374,-0.0269060134887695,-0.0029537677764892
1663562609002437600,10.701437744140634,0.0486072301864624,-0.0054035186767578,-0.0267123579978942
1663562609012435700,10.711435791015624,0.0288979411125183,-0.0126276016235351,-0.0120893716812133
1663562609022434000,10.721434082031251,-0.0195037722587585,-0.0126800537109375,-0.0452355742454528
1663562609032432000,10.731432128906249,-0.0697497129440307,0.006413459777832,-0.0131974816322326
1663562609042431000,10.741430908203128,-0.0690075755119323,0.0064239501953125,-0.0125306844711303
1663562609052428800,10.751428710937503,-0.0301790237426757,-0.0103235244750976,0.0187993645668029
1663562609062427600,10.761427734375005,0.0392884016036987,-0.0126857757568359,0.0210224390029907
1663562609072425700,10.771425781250002,0.0217546820640563,-0.0079145431518554,0.0035871863365173
1663562609082424600,10.781424560546874,0.0210151076316833,-0.0079193115234375,0.0029528737068176
1663562609092423000,10.791422851562501,-0.0199068784713745,-0.0174818038940429,0.0023940205574035
1663562609102421800,10.801421875000003,-0.0247067809104919,0.00885009765625,-0.0022752285003662
1663562609112420600,10.811420654296874,0.0228725671768188,-0.0103273391723632,-0.0381682515144348
1663562609122419500,10.821419433593753,0.0291231870651245,0.0135002136230468,-0.032631516456604
1663562609132418300,10.831418212890625,0.0022617578506469,-0.0080785751342773,-0.0035619139671325
1663562609142417200,10.841417236328127,0.0024592280387878,-0.0080699920654296,-0.0037071704864501
1663562609152416000,10.851416015624999,-0.0261921286582946,-0.0176277160644531,0.0321267843246459
1663562609162414800,10.861414794921885,-0.0142631530761718,-0.0128631591796875,0.0035363435745239
1663562609172413700,10.87141357421875,0.0139076709747314,0.001448631286621,-0.0079545974731445
1663562609182412500,10.88141259765625,-0.0055977702140808,0.0037860870361328,-0.0003201961517333
1663562609192411400,10.89141137695313,-0.0270231366157531,-0.0153512954711914,-0.0171378850936889
1663562609202410200,10.901410156250002,-0.0269160270690917,-0.0153408050537109,-0.0172324180603027
1663562609212409000,10.911409179687503,-0.0288038253784179,-0.0105476379394531,-0.0214032530784606
1663562609222407700,10.921407714843753,0.0263266563415527,-0.0321149826049804,0.0196307301521301
1663562609232406500,10.931406494140624,0.0164589285850524,-0.0225419998168945,0.0123595595359802
1663562609242405000,10.941405029296874,0.0166655182838439,-0.0225505828857421,0.0124494433403015
1663562609252403700,10.951403808593753,-0.0190215110778808,0.0038118362426757,-0.009008765220642
1663562609262402600,10.961402587890625,-0.0188993215560913,0.0038042068481445,-0.0088642835617065
1663562609272401400,10.971401367187504,0.0077582597732543,-0.0153493881225585,0.0104616284370422
1663562609282400000,10.981399902343753,0.0266224145889282,-0.0273351669311523,-0.0111210942268371
1663562609292398600,10.991398681640625,0.0169319510459899,-0.0321159362792968,0.0056077241897583
1663562609302397400,11.001397460937504,0.0169421434402465,-0.0321254730224609,0.0056197047233581
1663562609312396800,11.011396728515628,-0.0355592966079711,-0.0081758499145507,0.0009205937385559
1663562609322396400,11.021396484375003,-0.0258523225784301,-0.0081758499145507,-0.0037863850593566
1663562609332395800,11.031395751953127,-0.025552749633789,-0.0081510543823242,-0.0039200782775878
1663562609342394600,11.041394531249999,0.0315537452697753,-0.0129566192626953,-0.0014938712120056
1663562609352394200,11.051394287109375,0.0164844393730163,-0.0082149505615234,-0.0014278292655944
1663562609362393000,11.061393066406254,-0.0342310667037963,-0.0154438018798828,0.0082172155380249
1663562609372392400,11.071392333984377,-0.0673866271972656,-0.0201997756958007,0.0201028585433959
1663562609382391300,11.081391357421879,-0.0206804275512695,-0.0248689651489257,0.0267351865768432
1663562609392390700,11.091390625000003,0.0328065752983093,-0.0151958465576171,-0.0003514289855957
1663562609402389500,11.101389404296874,0.0324586033821105,-0.0152368545532226,-0.0002270936965942
1663562609412388000,11.111388183593753,0.0085113048553466,-0.0128459930419921,-0.0026667118072509
1663562609422387000,11.121386962890625,-0.012853980064392,-0.0080451965332031,-0.0097600221633911
1663562609432385500,11.131385498046875,-0.007924199104309,-0.0080118179321289,-0.0053571462631225
1663562609442384400,11.141384277343754,-0.007960021495819,-0.0080060958862304,-0.0054601430892944
1663562609452383200,11.151383300781248,0.0420299768447876,-0.0247907638549804,0.013602077960968
1663562609462381800,11.161381835937505,0.0413745641708374,-0.0248174667358398,0.0135684609413146
1663562609472380700,11.171380615234376,-0.0188259482383728,-0.0104732513427734,0.0062615275382995
1663562609482379500,11.181379638671878,-0.009073257446289,-0.0008611679077148,-0.0012484192848205
1663562609492378000,11.191378173828127,0.0197260379791259,0.0063161849975585,0.0012699961662292
1663562609502377000,11.201376953125,0.0315095782279968,-0.0080432891845703,-0.0275651812553405
1663562609512375800,11.211375732421878,0.0068840980529785,-0.0152902603149414,-0.0105915069580078
1663562609522374400,11.22137451171875,-0.0128266811370849,-0.0297002792358398,0.013597548007965
1663562609532373200,11.231373291015629,-0.0128165483474731,-0.0296926498413085,0.0135020017623901
1663562609542371800,11.241371826171878,-0.0153026580810546,-0.012944221496582,0.0063028931617736
1663562609552370700,11.25137060546875,0.0085132122039794,-0.0081501007080078,-0.0177376270294189
1663562609562369300,11.26136938476563,0.0180401802062988,-0.0057649612426757,-0.0057561993598937
1663562609572368100,11.271368164062501,-0.0014679431915283,-0.0034160614013671,0.0040996670722961
1663562609582367000,11.281366943359373,-0.001230776309967,-0.0033864974975585,0.0040655136108398
1663562609592365600,11.29136547851563,-0.0249850153923034,-0.0177841186523437,-0.0144201517105102
1663562609602364400,11.301364501953124,0.044222354888916,-0.0321664810180664,-0.0047669410705566
1663562609612363300,11.311363281250003,0.0340374112129211,-0.0082740783691406,0.0002932548522949
1663562609622361900,11.321361816406252,-0.0098323225975036,-0.0083284378051757,0.0219188332557678
1663562609632360700,11.331360595703124,-0.0100288391113281,-0.0083208084106445,0.0214850902557373
1663562609642359300,11.341359375000003,-0.0454307198524475,-0.015420913696289,0.0232047438621521
1663562609652358100,11.351358154296882,0.0171398520469665,-0.0057964324951171,0.0035319924354553
1663562609662356700,11.361356689453125,0.0194983482360839,-0.0225486755371093,-0.0280877351760864
1663562609672355300,11.371355224609374,0.019434630870819,-0.022552490234375,-0.0280757546424865
1663562609682354200,11.381354248046883,-0.028349757194519,-0.012944221496582,-0.0041878223419189
1663562609692353000,11.391353027343754,-0.0207399725914001,-0.0177345275878906,-0.0229725837707519
1663562609702351600,11.401351562500004,-0.0040264725685119,-0.0225248336791992,0.0345131158828735
1663562609712350500,11.411350585937498,0.0179066061973571,0.0181951522827148,-0.008578598499298
1663562609722349000,11.421349121093755,0.0179740786552429,0.0181884765625,-0.0084912180900573
1663562609732348000,11.431347900390634,-0.0178216099739074,-0.0272941589355468,-0.0108671188354492
1663562609742346800,11.441346679687499,-0.0053420066833496,-0.0200452804565429,0.0221350789070129
1663562609752345300,11.451345458984378,-0.0048537254333496,-0.0199823379516601,0.0214414000511169
1663562609762344200,11.46134423828125,0.021868884563446,-0.0055713653564453,-0.0098585486412048
1663562609772342800,11.471342773437499,0.0218867063522338,-0.0055780410766601,-0.0098879337310791
1663562609782341600,11.481341552734378,-0.0020539760589599,-0.0295124053955078,-0.0122495293617248
1663562609792340500,11.49134057617188,0.0074682235717773,-0.0032119750976562,-0.0021358728408813
1663562609802339000,11.501339111328129,0.0096111893653869,-0.0008783340454101,0.0247289538383483
1663562609812338000,11.511337890625,0.0096737742424011,-0.0248136520385742,0.0031425356864929
1663562609822336500,11.52133642578125,0.0001683235168457,-0.0152235031127929,0.0149745345115661
1663562609832335400,11.531335449218751,0.0001617670059204,-0.0152006149291992,0.0148046016693115
1663562609842334200,11.541334228515623,0.0097538828849792,-0.0199995040893554,-0.0331271886825561
1663562609852332800,11.551332763671873,0.0097283720970153,-0.0199947357177734,-0.0330564379692077
1663562609862331600,11.561331542968752,0.0048636198043823,-0.0128507614135742,-0.018135666847229
1663562609872330500,11.571330566406253,0.0047275424003601,-0.0128908157348632,-0.0174720883369445
1663562609882329000,11.581329101562503,-0.0119580030441284,-0.0128993988037109,0.0016995072364807
1663562609892328000,11.591327880859374,0.004732608795166,-0.0200719833374023,0.0089051723480224
1663562609902326800,11.601326904296883,0.0213924646377563,-0.0153083801269531,-0.0078853368759155
1663562609912325400,11.611325439453118,0.0284604430198669,-0.027287483215332,0.0089513659477233
1663562609922324200,11.621324218750004,0.0283904075622558,-0.0272855758666992,0.0090782046318054
1663562609932322800,11.631322753906254,0.0093654990196228,-0.0201082229614257,-0.0244103670120239
1663562609942321700,11.641321777343748,-0.0100646018981933,-0.010573387145996,0.0095356106758117
1663562609952320500,11.651320556640634,-0.0004331469535827,-0.015350341796875,-0.0073756575584411
1663562609962319400,11.661319335937499,-0.0148341655731201,-0.029707908630371,0.0308427810668945
1663562609972318500,11.671318359375,0.0019099116325378,-0.0225152969360351,0.0044673681259155
1663562609982317300,11.681317382812502,0.0021001696586608,-0.0129461288452148,0.0094563961029052
1663562609992316400,11.691316406250003,0.0023982524871826,-0.0129032135009765,0.0089916586875915
1663562610002315300,11.701315185546882,-0.0189209580421447,0.0182323455810546,-0.0027772188186645
1663562610012313600,11.711313720703124,-0.0183636546134948,0.0182552337646484,-0.0026255249977111
1663562610022311700,11.721311767578129,-0.0015916228294372,-0.0200376510620117,-0.0051233172416687
1663562610032310000,11.731310058593749,0.0006914734840393,-0.0367946624755859,0.0091005563735961
1663562610042309000,11.74130908203125,0.0029874444007873,-0.0368032455444335,0.0210424661636352
1663562610052307500,11.751307373046885,0.0029541254043579,-0.0367698669433593,0.0180191993713378
1663562610062305800,11.761305908203127,0.0031361579895019,-0.0367136001586914,0.0172871947288513
1663562610072305000,11.771304931640628,-0.0111075639724731,0.0087738037109375,-0.0208246111869812
1663562610082304000,11.78130395507813,-0.0088729262351989,-0.0056209564208984,-0.0182991623878479
1663562610092303000,11.791303222656254,-0.0089417099952697,-0.005629539489746,-0.0182145833969116
1663562610102302000,11.801302001953118,0.0078622102737426,-0.031930923461914,-0.0020700693130493
1663562610112300800,11.811300781250004,0.0030519962310791,-0.0031862258911132,-0.0165508985519409
1663562610122300000,11.821299804687499,-0.0137073993682861,0.0016078948974609,-0.0117342472076416
1663562610132299000,11.83129907226563,-0.0135543346405029,0.0016031265258789,-0.0117601156234741
1663562610142298000,11.841298095703124,0.0084511041641235,-0.0151128768920898,0.0072414875030517
1663562610152297200,11.851297119140625,0.0154640078544616,-0.0222902297973632,0.0095437765121459
1663562610162296300,11.861296386718749,0.0153161287307739,-0.022313117980957,0.0094002485275268
1663562610172295400,11.87129541015625,0.0105379819869995,-0.0007619857788085,0.0046944022178649
1663562610182294500,11.881294433593752,-0.0180714130401611,-0.0007553100585937,-0.0120424628257751
1663562610192293600,11.891293701171875,-0.041833758354187,-0.0127182006835937,0.0023567676544189
1663562610202292500,11.901292480468754,-0.0122527480125427,-0.0078535079956054,0.011640727519989
1663562610212291600,11.911291503906249,0.0526086091995239,-0.0102348327636718,-0.0173309445381164
1663562610222290400,11.92129052734375,0.0520604848861694,-0.0102548599243164,-0.0173678994178771
1663562610232289500,11.931289550781251,-0.0044852495193481,-0.0127716064453125,0.0021283626556396
1663562610242288600,11.941288574218753,-0.0573756098747253,-0.0127925872802734,-0.0120375156402587
1663562610252287700,11.951287841796884,-0.0568490028381347,-0.0127420425415039,-0.0120819211006164
1663562610262286600,11.961286621093748,-0.0745934844017028,-0.0150871276855468,-0.0163281559944152
1663562610272285700,11.97128564453125,0.0815349221229553,-0.0079202651977539,0.0036824941635131
1663562610282284500,11.981284423828129,0.0806092619895935,-0.0080118179321289,0.0041363835334777
1663562610292283400,11.991283447265623,-0.0165421366691589,-0.0248756408691406,0.0068802237510681
1663562610302282200,12.001282226562502,-0.0454028248786926,-0.0176992416381835,0.0212088823318481
1663562610312281600,12.011281494140626,-0.0450292229652404,-0.0176610946655273,0.021060287952423
1663562610322281500,12.021281494140624,-0.0702356100082397,-0.0415468215942382,-0.0099748373031616
1663562610332280800,12.031280761718754,0.0681985020637512,0.0015211105346679,-0.0170867443084716
1663562610342279400,12.041279541015626,0.0680378079414367,0.0014886856079101,-0.016896903514862
1663562610352279000,12.05127905273438,0.0433371067047119,-0.0081357955932617,0.0001509189605712
1663562610362278400,12.061278320312503,-0.0118902325630187,-0.0009746551513671,-0.004582941532135
1663562610372277200,12.071277343750005,-0.0140575170516967,-0.0153141021728515,0.0169351696968078
1663562610382275800,12.081275878906254,0.0030269622802734,-0.0176868438720703,-0.0262777209281921
1663562610392274700,12.091274658203126,0.0103359818458557,-0.0153093338012695,0.0267065167427063
1663562610402273800,12.101273681640635,0.0317116379737854,-0.0248975753784179,-0.0068331956863403
1663562610412272600,12.111272705078129,0.0315778851509094,-0.0248947143554687,-0.0066984891891479
1663562610422271200,12.121271240234378,0.0145418047904968,-0.0129575729370117,-0.009062111377716
1663562610432270000,12.13127001953125,-0.0307746529579162,-0.036865234375,-0.0188432335853576
1663562610442268700,12.1412685546875,-0.0088239908218383,-0.0272693634033203,-0.0043063163757324
1663562610452267500,12.151267578125001,-0.0085740089416503,-0.0272684097290039,-0.0041577219963073
1663562610462266400,12.161266357421873,0.0007681250572204,-0.0177030563354492,0.0125648379325866
1663562610472265000,12.17126489257813,0.0341811180114746,0.0062274932861328,0.0101829171180725
1663562610482263800,12.181263916015624,0.0338661670684814,0.0062141418457031,0.0099256038665771
1663562610492262700,12.191262695312503,-0.0096285343170166,-0.0249147415161132,-0.0021830201148986
1663562610502261800,12.201261718750004,-0.0167348384857177,-0.0129280090332031,0.0073055028915405
1663562610512260400,12.211260253906254,-0.004808485507965,-0.0201301574707031,-0.01434326171875
1663562610522259200,12.221259277343748,0.0116398334503173,-0.0105609893798828,2.14576721191e-05
1663562610532257800,12.231257812500004,0.0114499330520629,-0.0105581283569335,-1.03712081909e-05
1663562610542256600,12.241256591796883,-0.0004317760467529,-0.0225372314453125,0.0048046112060546
