time,seconds_elapsed,z,y,x
1663562598302710300,0.0017102050781261369,-0.0014508049935102,0.0001527163112768,0.0012217304902151
1663562598312709000,0.011709228515623948,-0.000839939690195,-0.0010690141934901,0.0030543261673301
1663562598322708000,0.021708007812502927,-0.0020616701804101,0.0001527163112768,0.0018325957935303
1663562598332706800,0.0317067871093748,-0.0002290744741912,-0.0010690141934901,-0.0024434609804302
1663562598342705700,0.04170556640625023,-0.0014508049935102,0.0001527163112768,-0.0030543261673301
1663562598352704500,0.05170458984375159,-0.0002290744741912,0.0001527163112768,-0.0006108652451075
1663562598362703400,0.06170336914062702,-0.0002290744741912,-0.0004581489483825,0.0
1663562598372702200,0.07170214843750244,-0.0002290744741912,-0.00167987938039,0.0012217304902151
1663562598382701300,0.0817014160156262,-0.0155007056891918,0.078343465924263,-0.0897971913218498
1663562598392699400,0.0916994628906238,-0.0063377269543707,-0.007177666760981,-0.2370157092809677
1663562598402697200,0.10169726562500259,-0.0020616701804101,-0.0059559359215199,-0.1117883399128913
1663562598412696000,0.11169604492188157,0.0058795781806111,-0.0041233403608202,0.1398881375789642
1663562598422695000,0.12169482421874989,0.0083230389282107,-0.024892758578062,0.261450320482254
1663562598432693800,0.13169384765625125,0.00465784734115,-0.020616702735424,0.192422553896904
1663562598442692600,0.14169262695312668,0.0016035212902352,-0.016951510682702,0.0128281703218817
1663562598452691500,0.1516914062500021,0.006490443367511,-0.01328631862998,-0.1331686228513717
1663562598462690300,0.16169018554688108,0.0016035212902352,0.0080939643085002,-0.1423316001892089
1663562598472689000,0.17168896484375296,-0.00267253536731,0.019089538604021,-0.0482583530247211
1663562598482687700,0.18168774414062483,-0.0002290744741912,0.0142026171088218,0.058643065392971
1663562598492685800,0.191685791015626,-0.0081703225150704,0.011148290708661,0.0983493030071258
1663562598502684700,0.20168457031250142,-0.0081703225150704,-0.0022907445672899,0.0482583530247211
1663562598512683300,0.21168334960937685,0.0034361169673502,-0.0120645882561802,-0.0342084541916847
1663562598522682000,0.22168212890625227,0.0071013085544109,-0.009010262787342,-0.0678060427308082
1663562598532680700,0.23168066406250176,0.0119882300496101,-0.0083993971347808,-0.0604756586253643
1663562598542679600,0.2416794433593772,0.0162642877548933,-0.0096211275085806,-0.0195476878434419
1663562598552678100,0.2516782226562526,0.00465784734115,-0.0010690141934901,0.0219911485910415
1663562598562677000,0.2616770019531245,-0.0136681096628308,0.012980886735022,0.0421497002243995
1663562598572675600,0.27167553710937753,-0.0100029185414314,0.0074830991216003,0.0238237436860799
1663562598582674400,0.28167431640625296,-0.0038942659739404,0.0056505035609006,-0.0085521135479211
1663562598592673300,0.29167333984375077,0.00465784734115,0.0038179077673703,-0.0207694191485643
1663562598602671900,0.30167187500000026,0.0125990957021713,-0.007177666760981,-0.0158824957907199
1663562598612670700,0.3116706542968757,0.006490443367511,-0.0096211275085806,-0.0012217304902151
1663562598622668800,0.3216687011718804,-0.0014508049935102,-0.0065668015740811,0.0103847095742821
1663562598632667600,0.33166772460937466,-0.0069485921412706,-0.00167987938039,0.0158824957907199
1663562598642666200,0.34166625976562415,-0.0051159965805709,0.0050396383740007,0.0042760567739605
1663562598652665000,0.3516650390624996,0.0003817907709162,0.0044287731871008,-0.0067195175215601
1663562598662663700,0.3616635742187526,0.0034361169673502,0.0038179077673703,-0.0091629782691597
1663562598672662500,0.3716625976562504,0.0040469821542501,0.0019853119738399,-0.0085521135479211
1663562598682661000,0.3816611328124999,0.0009926559869199,-0.00167987938039,-0.0018325957935303
1663562598692660700,0.3916606445312496,-0.000839939690195,-0.0035124751739203,0.0103847095742821
1663562598702660400,0.4016604003906252,0.0003817907709162,-0.0059559359215199,0.0097738439217209
1663562598712659200,0.41165917968750065,0.0003817907709162,-0.00167987938039,0.0018325957935303
1663562598722658000,0.4216579589843725,-0.000839939690195,0.0019853119738399,-0.0061086523346602
1663562598732656600,0.4316567382812515,-0.000839939690195,0.0032070425804704,-0.0085521135479211
1663562598742655500,0.4416555175781305,-0.000839939690195,0.0025961773935705,-0.0042760567739605
1663562598752654000,0.45165405273437287,0.0003817907709162,-0.0004581489483825,0.0018325957935303
1663562598762653000,0.46165283203125185,0.0016035212902352,-0.0004581489483825,0.0061086523346602
1663562598772651800,0.47165185546874966,0.0028252517804503,-0.0010690141934901,-0.0006108652451075
1663562598782650400,0.4816503906250027,0.0022143865935504,-0.0022907445672899,-0.0067195175215601
1663562598792649200,0.4916491699218781,-0.00267253536731,0.0007635815418325,-0.0054977871477603
1663562598802647800,0.5016477050781276,-0.0032834007870405,-0.0022907445672899,-0.0006108652451075
1663562598812646400,0.5116464843749995,-0.0014508049935102,-0.0004581489483825,0.0054977871477603
1663562598822645200,0.5216452636718785,0.0003817907709162,0.0001527163112768,0.0067195175215601
1663562598832644000,0.5316440429687503,0.0016035212902352,0.00137444678694,-0.0006108652451075
1663562598842642700,0.5416425781249998,0.0016035212902352,0.0025961773935705,-0.0079412478953599
1663562598852641500,0.5516416015625012,0.0016035212902352,0.0001527163112768,-0.0061086523346602
1663562598862640000,0.5616401367187507,-0.0020616701804101,0.0001527163112768,0.0012217304902151
1663562598872639000,0.5716389160156261,-0.000839939690195,-0.0004581489483825,0.0048869219608604
1663562598882637800,0.581637939453131,-0.0002290744741912,-0.0010690141934901,0.0054977871477603
1663562598892636400,0.591636474609377,0.0009926559869199,-0.0004581489483825,0.0012217304902151
1663562598902635000,0.6016350097656264,-0.0002290744741912,-0.0010690141934901,-0.0054977871477603
1663562598912633900,0.6116337890625019,0.0009926559869199,-0.0010690141934901,-0.0024434609804302
1663562598922633200,0.6216333007812516,0.0009926559869199,-0.0004581489483825,0.0012217304902151
1663562598932631800,0.631631835937501,-0.0002290744741912,0.0001527163112768,0.0042760567739605
1663562598942630700,0.6416306152343729,-0.0002290744741912,0.0001527163112768,0.0024434609804302
1663562598952629500,0.6516293945312519,-0.000839939690195,0.00137444678694,0.0
1663562598962628000,0.6616281738281309,-0.000839939690195,0.0007635815418325,-0.0036651915870606
1663562598972627000,0.6716269531250028,-0.0002290744741912,-0.0004581489483825,-0.0030543261673301
1663562598982625800,0.6816257324218782,-0.0002290744741912,-0.0010690141934901,0.0018325957935303
1663562598992624400,0.6916242675781277,-0.0002290744741912,-0.0010690141934901,0.0030543261673301
1663562599002623200,0.7016232910156255,0.0003817907709162,-0.0010690141934901,0.0012217304902151
1663562599012621800,0.7116218261718785,0.0003817907709162,-0.0010690141934901,-0.0012217304902151
1663562599022620700,0.7216206054687504,0.0009926559869199,0.0032070425804704,-0.0048869219608604
1663562599032619300,0.7316193847656258,-0.0002290744741912,0.0007635815418325,-0.0012217304902151
1663562599042618000,0.7416181640625013,-0.000839939690195,-0.0004581489483825,0.0030543261673301
1663562599052617000,0.7516169433593731,-0.0002290744741912,-0.0004581489483825,0.0030543261673301
1663562599062615600,0.7616154785156262,-0.0002290744741912,0.0007635815418325,0.0006108652451075
1663562599072614400,0.7716145019531275,0.0003817907709162,-0.0022907445672899,-0.0018325957935303
1663562599082613200,0.781613281250003,0.0016035212902352,0.0001527163112768,-0.0018325957935303
1663562599092612600,0.7916125488281267,0.0003817907709162,0.0007635815418325,-0.0006108652451075
1663562599102611500,0.8016115722656245,-0.0002290744741912,0.0019853119738399,-0.0018325957935303
1663562599112610000,0.8116101074218811,-0.0014508049935102,0.0001527163112768,0.0
1663562599122609000,0.821608886718753,-0.000839939690195,0.0007635815418325,0.0012217304902151
1663562599132607700,0.8316076660156249,-0.000839939690195,-0.0022907445672899,0.0024434609804302
1663562599142606300,0.8416064453125003,0.0003817907709162,-0.0022907445672899,0.0006108652451075
1663562599152605200,0.8516052246093722,0.0009926559869199,-0.0004581489483825,-0.0018325957935303
1663562599162603800,0.8616037597656252,-0.0002290744741912,-0.0010690141934901,-0.0030543261673301
1663562599172602600,0.8716025390625006,0.0003817907709162,-0.0004581489483825,-0.0030543261673301
1663562599182601500,0.881601562500002,-0.0014508049935102,0.00137444678694,-0.0012217304902151
1663562599192600000,0.8916000976562515,-0.000839939690195,0.00137444678694,0.0024434609804302
1663562599202599000,0.9015988769531305,0.0003817907709162,0.0007635815418325,0.0018325957935303
1663562599212597800,0.9115976562500023,0.0003817907709162,0.00137444678694,-0.0012217304902151
1663562599222596900,0.9215969238281261,-0.0002290744741912,-0.0004581489483825,-0.0018325957935303
1663562599232595700,0.9315957031250015,-0.0002290744741912,-0.0004581489483825,0.0
1663562599242594800,0.9415947265625029,-0.0002290744741912,-0.0010690141934901,0.0018325957935303
1663562599252593700,0.9515937500000007,-0.0002290744741912,-0.0010690141934901,0.0024434609804302
1663562599262592800,0.961592773437502,0.0003817907709162,-0.0010690141934901,0.0012217304902151
1663562599272592000,0.9715917968749999,0.0009926559869199,-0.0004581489483825,-0.0006108652451075
1663562599282591000,0.9815910644531307,-0.0002290744741912,0.0019853119738399,-0.0006108652451075
1663562599292590000,0.991590087890625,0.0003817907709162,0.00137444678694,0.0006108652451075
1663562599302589000,1.0015888671875004,0.0003817907709162,0.0001527163112768,-0.0018325957935303
1663562599312588000,1.0115881347656241,0.0009926559869199,0.00137444678694,-0.0018325957935303
1663562599322587100,1.0215871582031255,-0.0002290744741912,0.0007635815418325,-0.0024434609804302
1663562599332586200,1.0315861816406269,-0.000839939690195,0.0007635815418325,0.0
1663562599342585300,1.0415854492187506,0.0003817907709162,-0.0029016099870204,-0.0006108652451075
1663562599352584400,1.051584472656252,0.0009926559869199,-0.0010690141934901,0.0018325957935303
1663562599362583600,1.0615834960937498,-0.0002290744741912,0.0007635815418325,0.0018325957935303
1663562599372582700,1.0715827636718807,-0.000839939690195,0.0019853119738399,0.0012217304902151
1663562599382581000,1.0815810546875007,-0.0002290744741912,-0.0010690141934901,0.0
1663562599392579600,1.0915795898437501,0.0009926559869199,-0.00167987938039,-0.0012217304902151
1663562599402577700,1.1015776367187513,0.0009926559869199,-0.0010690141934901,0.0006108652451075
1663562599412576800,1.1115766601562527,-0.000839939690195,0.0019853119738399,0.0024434609804302
1663562599422575900,1.1215759277343729,-0.000839939690195,-0.0004581489483825,0.0012217304902151
1663562599432574200,1.13157421875,-0.0002290744741912,0.0007635815418325,-0.0006108652451075
1663562599442572500,1.1415725097656235,0.0003817907709162,-0.0010690141934901,-0.0024434609804302
1663562599452571600,1.1515715332031249,0.0009926559869199,0.00137444678694,-0.0006108652451075
1663562599462570800,1.1615708007812522,0.0009926559869199,0.00137444678694,0.0
1663562599472569900,1.17156982421875,0.0016035212902352,0.0001527163112768,-0.0012217304902151
1663562599482569000,1.1815688476562514,0.0009926559869199,0.0001527163112768,-0.0012217304902151
1663562599492568000,1.1915681152343716,-0.000839939690195,0.0007635815418325,-0.0006108652451075
1663562599502567200,1.2015671386718765,-0.000839939690195,-0.0004581489483825,0.0012217304902151
1663562599512566000,1.211565917968752,-0.000839939690195,-0.0004581489483825,0.0
1663562599522564900,1.2215649414062497,-0.0002290744741912,-0.00167987938039,0.0006108652451075
1663562599532563700,1.2315637207031251,0.0016035212902352,-0.0029016099870204,-0.0006108652451075
1663562599542562600,1.2415625000000006,0.0003817907709162,0.0001527163112768,0.0006108652451075
1663562599552561400,1.251561523437502,0.0003817907709162,0.00137444678694,0.0006108652451075
1663562599562560300,1.2615603027343774,-0.000839939690195,0.0019853119738399,0.0012217304902151
1663562599572559000,1.2715590820312528,-0.0002290744741912,-0.0004581489483825,0.0006108652451075
1663562599582557700,1.2815576171875023,0.0003817907709162,-0.0010690141934901,-0.0006108652451075
1663562599592556500,1.291556640625,-0.0002290744741912,-0.0010690141934901,0.0006108652451075
1663562599602555400,1.3015554199218755,0.0009926559869199,-0.0022907445672899,0.0012217304902151
1663562599612554000,1.311553955078125,0.0009926559869199,-0.00167987938039,0.0006108652451075
1663562599622552000,1.3215520019531262,0.0003817907709162,0.0001527163112768,-0.0006108652451075
1663562599632551000,1.331551025390624,-0.0002290744741912,0.0019853119738399,-0.0012217304902151
1663562599642549500,1.3415495605468806,-0.0014508049935102,0.0025961773935705,-0.0012217304902151
1663562599652548400,1.3515483398437524,-0.0002290744741912,0.0007635815418325,0.0018325957935303
1663562599662547000,1.361546875000002,-0.0002290744741912,-0.0004581489483825,0.0012217304902151
1663562599672545800,1.3715458984374997,-0.0014508049935102,0.0001527163112768,0.0006108652451075
1663562599682545200,1.3815451660156235,-0.000839939690195,-0.0010690141934901,0.0012217304902151
1663562599692544500,1.3915444335937508,0.0009926559869199,-0.0022907445672899,0.0006108652451075
1663562599702544100,1.4015441894531264,0.0016035212902352,-0.0004581489483825,0.0
1663562599712543000,1.4115429687500018,-0.0002290744741912,0.00137444678694,-0.0006108652451075
1663562599722541800,1.4215417480468808,-0.0002290744741912,0.00137444678694,-0.0012217304902151
1663562599732541200,1.431541259765627,-0.000839939690195,0.0001527163112768,-0.0018325957935303
1663562599742540800,1.441540771484373,0.0003817907709162,0.0007635815418325,0.0
1663562599752539400,1.4515393066406261,0.0009926559869199,-0.0004581489483825,0.0018325957935303
1663562599762538200,1.4615383300781275,0.0003817907709162,-0.0004581489483825,0.0
1663562599772536800,1.471536865234377,0.0003817907709162,0.0001527163112768,-0.0036651915870606
1663562599782535700,1.4815356445312524,-0.0014508049935102,0.0001527163112768,-0.0036651915870606
1663562599792534500,1.4915344238281278,-0.0002290744741912,0.0001527163112768,-0.0018325957935303
1663562599802533000,1.5015332031249997,-0.000839939690195,-0.0004581489483825,0.0012217304902151
1663562599812532000,1.5115319824218787,-0.0014508049935102,0.0001527163112768,0.0030543261673301
1663562599822530600,1.5215305175781246,0.0009926559869199,-0.00167987938039,0.0
1663562599832529400,1.531529296875,0.0009926559869199,-0.00167987938039,-0.0030543261673301
1663562599842528300,1.5415283203125014,0.0003817907709162,0.0001527163112768,-0.0036651915870606
1663562599852526800,1.551526855468751,-0.0014508049935102,0.0007635815418325,0.0
1663562599862525700,1.5615256347656263,-0.000839939690195,0.00137444678694,0.0030543261673301
1663562599872524500,1.5715246582031277,-0.0002290744741912,0.0007635815418325,0.0042760567739605
1663562599882523100,1.5815231933593772,-0.0014508049935102,0.0001527163112768,0.0
1663562599892522000,1.5915219726562526,-0.0014508049935102,0.00137444678694,-0.0024434609804302
1663562599902520600,1.601520507812502,-0.000839939690195,0.0001527163112768,-0.0030543261673301
1663562599912519400,1.61151953125,0.0016035212902352,-0.00167987938039,-0.0012217304902151
1663562599922518800,1.6215187988281308,0.0003817907709162,-0.0004581489483825,0.0024434609804302
1663562599932517400,1.6315173339843732,0.0009926559869199,0.0001527163112768,0.0018325957935303
1663562599942516200,1.6415161132812521,-0.000839939690195,-0.0010690141934901,-0.0006108652451075
1663562599952514800,1.6515148925781276,-0.0002290744741912,-0.0004581489483825,-0.0024434609804302
1663562599962513700,1.661513671875003,0.0003817907709162,0.0007635815418325,0.0
1663562599972512300,1.6715122070312525,-0.0020616701804101,0.0019853119738399,0.0024434609804302
1663562599982511000,1.681510986328128,0.0003817907709162,0.00137444678694,0.0024434609804302
1663562599992509700,1.6915097656249998,0.0003817907709162,-0.0010690141934901,0.0018325957935303
1663562600002508500,1.7015085449218788,0.0016035212902352,-0.0029016099870204,0.0012217304902151
1663562600012507100,1.7115070800781247,0.0022143865935504,-0.0029016099870204,0.0024434609804302
1663562600022506000,1.721506103515626,0.0009926559869199,-0.0022907445672899,0.0030543261673301
1663562600032504600,1.7315046386718755,0.0016035212902352,-0.0022907445672899,0.0012217304902151
1663562600042503400,1.741503417968751,-0.0002290744741912,-0.0004581489483825,0.0012217304902151
1663562600052502300,1.7515021972656264,-0.0002290744741912,-0.0010690141934901,-0.0006108652451075
1663562600062500900,1.7615009765625018,-0.0002290744741912,0.0007635815418325,-0.0018325957935303
1663562600072499700,1.7714997558593772,0.0009926559869199,0.00137444678694,0.0
1663562600082498300,1.7814982910156267,0.0009926559869199,0.0007635815418325,0.0006108652451075
1663562600092497200,1.7914970703125022,0.0003817907709162,0.0007635815418325,0.0
1663562600102496000,1.80149609375,-0.000839939690195,0.0007635815418325,0.0006108652451075
1663562600112494600,1.811494628906253,-0.000839939690195,0.0007635815418325,0.0006108652451075
1663562600122493400,1.8214934082031249,0.0003817907709162,-0.0010690141934901,-0.0012217304902151
1663562600132492300,1.8314921875000003,0.0009926559869199,-0.00167987938039,-0.0006108652451075
1663562600142491000,1.8414909667968757,0.0009926559869199,-0.0010690141934901,0.0
1663562600152489700,1.8514897460937512,-0.000839939690195,0.0001527163112768,-0.0006108652451075
1663562600162488600,1.8614885253906266,-0.0002290744741912,0.0007635815418325,-0.0018325957935303
1663562600172487200,1.871487060546876,-0.0002290744741912,0.0007635815418325,0.0006108652451075
1663562600182486000,1.8814860839843774,-0.0014508049935102,0.0007635815418325,0.0012217304902151
1663562600192484600,1.891484619140627,-0.0002290744741912,0.0007635815418325,0.0
1663562600202483200,1.9014831542968764,-0.000839939690195,0.0007635815418325,-0.0006108652451075
1663562600212481500,1.9114814453125,0.0009926559869199,-0.0004581489483825,-0.0012217304902151
1663562600222480400,1.9214804687500013,-0.0002290744741912,-0.0004581489483825,-0.0006108652451075
1663562600232479200,1.9314792480468803,0.0009926559869199,-0.0004581489483825,0.0018325957935303
1663562600242478000,1.9414780273437522,-0.0002290744741912,-0.0010690141934901,0.0030543261673301
1663562600252476700,1.9514765625000017,-0.0014508049935102,-0.0022907445672899,0.0012217304902151
1663562600262475500,1.9614755859374995,-0.0002290744741912,-0.0004581489483825,-0.0006108652451075
1663562600272474400,1.971474365234375,-0.0014508049935102,0.0007635815418325,-0.0012217304902151
1663562600282473000,1.981472900390628,0.0003817907709162,0.0007635815418325,-0.0012217304902151
1663562600292471800,1.9914719238281258,-0.0002290744741912,-0.00167987938039,0.0006108652451075
1663562600302470700,2.001470703125001,0.0003817907709162,-0.0004581489483825,-0.0012217304902151
1663562600312469500,2.0114694824218766,-0.0002290744741912,0.0001527163112768,-0.0024434609804302
1663562600322468600,2.021468505859378,0.0003817907709162,0.0007635815418325,-0.0030543261673301
1663562600332467500,2.031467529296876,0.0016035212902352,-0.0004581489483825,-0.0012217304902151
1663562600342466600,2.041466552734377,-0.0002290744741912,0.0001527163112768,0.0012217304902151
1663562600352465400,2.0514653320312526,-0.000839939690195,-0.0004581489483825,0.0024434609804302
1663562600362464500,2.061464599609373,-0.000839939690195,-0.0010690141934901,0.0018325957935303
1663562600372463600,2.0714636230468813,-0.0002290744741912,0.0001527163112768,-0.0006108652451075
1663562600382495200,2.081495117187501,0.0016035212902352,0.0001527163112768,-0.0024434609804302
1663562600392526800,2.09152685546875,0.0009926559869199,-0.0010690141934901,-0.0036651915870606
1663562600402558500,2.101558349609377,-0.0002290744741912,0.0007635815418325,-0.0018325957935303
1663562600412589800,2.11158984375,-0.0002290744741912,0.0007635815418325,0.0030543261673301
1663562600422622200,2.1216223144531305,-0.000839939690195,0.0001527163112768,0.0042760567739605
1663562600432654600,2.131654541015628,-0.0014508049935102,0.00137444678694,0.0
1663562600442687000,2.1416870117187514,-0.0002290744741912,0.0001527163112768,-0.0018325957935303
1663562600452719400,2.1517192382812524,0.0016035212902352,-0.0022907445672899,-0.0024434609804302
1663562600462751700,2.1617517089843723,0.0016035212902352,-0.0035124751739203,-0.0006108652451075
1663562600472784100,2.171784179687503,0.0009926559869199,-0.00167987938039,0.0018325957935303
1663562600482816500,2.1818164062500003,-0.0002290744741912,0.0001527163112768,0.0042760567739605
1663562600492849000,2.191848876953131,-0.0002290744741912,0.0001527163112768,0.0024434609804302
1663562600502881500,2.2018815917968766,-0.0014508049935102,0.0001527163112768,-0.0018325957935303
1663562600512914400,2.211914550781252,-0.000839939690195,0.0001527163112768,-0.0042760567739605
1663562600522946800,2.221946777343753,-0.000839939690195,0.0007635815418325,-0.0036651915870606
1663562600532979200,2.2319792480468763,0.0009926559869199,0.00137444678694,-0.0024434609804302
1663562600543011600,2.2420114746093773,0.0003817907709162,-0.0004581489483825,0.0
1663562600553044000,2.2520439453125007,0.0009926559869199,-0.0004581489483825,0.0012217304902151
1663562600563076400,2.262076416015624,0.0003817907709162,-0.0010690141934901,0.0
1663562600573108700,2.272108642578125,-0.0002290744741912,0.0001527163112768,-0.0012217304902151
1663562600583141000,2.282141113281252,0.0003817907709162,0.0001527163112768,0.0
1663562600593173200,2.2921733398437496,0.0009926559869199,0.0001527163112768,0.0024434609804302
1663562600603205600,2.3022055664062506,0.0003817907709162,-0.0004581489483825,0.0012217304902151
1663562600613237800,2.3122377929687516,-0.0002290744741912,0.0007635815418325,-0.0012217304902151
1663562600623270000,2.3222697753906267,-0.000839939690195,0.0007635815418325,-0.0024434609804302
1663562600633302000,2.3323020019531278,-0.0002290744741912,-0.0004581489483825,-0.0006108652451075
1663562600643334100,2.3423342285156252,0.0009926559869199,-0.0022907445672899,0.0
1663562600653366300,2.3523662109375003,0.0022143865935504,-0.00167987938039,0.0018325957935303
1663562600663398400,2.3623984375000013,0.0009926559869199,-0.0004581489483825,0.0012217304902151
1663562600673430500,2.3724304199218764,-0.0014508049935102,0.0001527163112768,0.0006108652451075
1663562600683430000,2.382429931640626,-0.0002290744741912,0.0001527163112768,0.0018325957935303
1663562600693429200,2.39242919921875,-0.000839939690195,0.00137444678694,0.0036651915870606
1663562600703428900,2.4024289550781255,0.0003817907709162,-0.0004581489483825,0.0012217304902151
1663562600713428500,2.4124284667968787,0.0009926559869199,-0.0004581489483825,0.0
1663562600723427300,2.4224272460937506,0.0003817907709162,-0.0010690141934901,0.0006108652451075
1663562600733426000,2.432426025390626,0.0016035212902352,-0.0010690141934901,0.0
1663562600743424800,2.4424248046875014,-0.000839939690195,0.0001527163112768,-0.0006108652451075
1663562600753423600,2.452423583984377,0.0003817907709162,0.0001527163112768,-0.0018325957935303
1663562600763422200,2.4624221191406264,-0.0002290744741912,0.00137444678694,-0.0042760567739605
1663562600773421000,2.4724211425781277,-0.0002290744741912,0.00137444678694,-0.0024434609804302
1663562600783419600,2.482419677734377,-0.0014508049935102,0.0025961773935705,0.0018325957935303
1663562600793418500,2.4924184570312526,-0.000839939690195,0.00137444678694,0.0036651915870606
1663562600803417300,2.5024172363281245,-0.000839939690195,0.0001527163112768,0.0018325957935303
1663562600813416000,2.512416015625,0.0009926559869199,-0.00167987938039,-0.0012217304902151
1663562600823414000,2.522414062500001,0.0009926559869199,-0.0022907445672899,-0.0018325957935303
1663562600833412900,2.5324128417968765,0.0009926559869199,-0.00167987938039,-0.0006108652451075
1663562600843411500,2.542411376953126,-0.000839939690195,-0.0004581489483825,0.0036651915870606
1663562600853410300,2.552410400390624,-0.0002290744741912,0.0007635815418325,0.0018325957935303
1663562600863409200,2.562409179687503,-0.000839939690195,0.0025961773935705,-0.0030543261673301
1663562600873407700,2.5724077148437523,-0.0002290744741912,0.0007635815418325,-0.0054977871477603
1663562600883406600,2.582406494140624,-0.0002290744741912,0.0007635815418325,-0.0024434609804302
1663562600893405400,2.5924055175781255,0.0009926559869199,-0.00167987938039,0.0018325957935303
1663562600903404000,2.6024040527343715,0.0009926559869199,-0.0022907445672899,0.0036651915870606
1663562600913403000,2.6124028320312505,0.0003817907709162,-0.0004581489483825,0.0030543261673301
1663562600923401500,2.6224013671875,0.0016035212902352,-0.0010690141934901,-0.0036651915870606
1663562600933400300,2.6324003906250013,0.0003817907709162,0.00137444678694,-0.0042760567739605
1663562600943399200,2.6423991699218767,0.0003817907709162,0.00137444678694,-0.0006108652451075
1663562600953397800,2.6523977050781262,0.0003817907709162,0.0001527163112768,0.0036651915870606
1663562600963396600,2.662396728515624,-0.0014508049935102,0.0025961773935705,0.0042760567739605
1663562600973394700,2.672394775390625,-0.0002290744741912,-0.0010690141934901,0.0018325957935303
1663562600983393500,2.6823935546875006,0.0003817907709162,-0.0004581489483825,-0.0012217304902151
1663562600993392000,2.69239208984375,0.0003817907709162,0.0007635815418325,-0.0042760567739605
1663562601003390200,2.7023901367187513,0.0003817907709162,-0.0010690141934901,-0.0042760567739605
1663562601013388300,2.7123881835937524,-0.000839939690195,-0.0004581489483825,-0.0018325957935303
1663562601023386400,2.7223864746093724,-0.0002290744741912,0.0001527163112768,0.0012217304902151
1663562601033384400,2.732384521484377,-0.000839939690195,0.00137444678694,0.0012217304902151
1663562601043382500,2.7423825683593748,0.0009926559869199,-0.0004581489483825,-0.0012217304902151
1663562601053381000,2.752381103515628,0.0016035212902352,-0.0004581489483825,-0.0018325957935303
1663562601063380000,2.7623798828124997,0.0009926559869199,-0.0004581489483825,-0.0006108652451075
1663562601073377800,2.7723776855468785,0.0003817907709162,0.0019853119738399,0.0
1663562601083376600,2.7823767089843727,-0.0002290744741912,-0.0010690141934901,0.0012217304902151
1663562601093375500,2.7923754882812517,-0.0014508049935102,-0.0010690141934901,0.0024434609804302
1663562601103374000,2.802374023437501,-0.0002290744741912,0.0001527163112768,0.0024434609804302
1663562601113373000,2.8123730468750026,-0.0002290744741912,0.0001527163112768,0.0
1663562601123372300,2.8223723144531263,-0.0002290744741912,0.0007635815418325,-0.0012217304902151
1663562601133371100,2.8323710937500017,0.0003817907709162,-0.0004581489483825,-0.0024434609804302
1663562601143369700,2.8423696289062512,0.0009926559869199,-0.0004581489483825,0.0
1663562601153368600,2.8523686523437526,-0.000839939690195,0.0001527163112768,0.0030543261673301
1663562601163367200,2.862367187500002,0.0003817907709162,0.0007635815418325,0.0030543261673301
1663562601173366000,2.872365966796881,-0.0002290744741912,0.00137444678694,0.0006108652451075
1663562601183364600,2.8823645019531305,-0.000839939690195,0.0001527163112768,-0.0024434609804302
1663562601193363500,2.892363525390625,-0.0002290744741912,0.00137444678694,0.0
1663562601203362300,2.9023623046875002,0.0003817907709162,-0.0004581489483825,-0.0018325957935303
1663562601213361000,2.9123608398437497,0.0003817907709162,-0.0010690141934901,0.0
1663562601223359700,2.922359863281251,0.0009926559869199,-0.0010690141934901,-0.0006108652451075
1663562601233358600,2.9323586425781265,0.0009926559869199,-0.0010690141934901,-0.0012217304902151
1663562601243357200,2.9423571777343724,-0.000839939690195,-0.0004581489483825,0.0006108652451075
1663562601253356000,2.9523559570312514,-0.000839939690195,-0.0004581489483825,0.0018325957935303
1663562601263355000,2.962354980468753,-0.0002290744741912,0.0001527163112768,0.0012217304902151
1663562601273354200,2.9723542480468765,-0.0002290744741912,0.0019853119738399,-0.0012217304902151
1663562601283352800,2.982352783203126,0.0009926559869199,0.00137444678694,-0.0024434609804302
1663562601293351700,2.9923515625000014,0.0003817907709162,0.0007635815418325,-0.0036651915870606
1663562601303351300,3.002351318359377,0.0003817907709162,0.0001527163112768,-0.0012217304902151
1663562601313350700,3.012350585937501,-0.0002290744741912,0.0001527163112768,0.0024434609804302
1663562601323350000,3.0223500976562505,0.0003817907709162,-0.0004581489483825,0.0042760567739605
1663562601333349400,3.032349365234378,0.0009926559869199,-0.0004581489483825,0.0024434609804302
1663562601343349000,3.0423488769531275,0.0003817907709162,-0.00167987938039,-0.0030543261673301
1663562601353347600,3.052347656250003,-0.000839939690195,0.0001527163112768,-0.0030543261673301
1663562601363346400,3.0623464355468784,0.0003817907709162,0.0001527163112768,-0.0006108652451075
1663562601373346000,3.0723459472656245,-0.0014508049935102,0.0001527163112768,0.0018325957935303
1663562601383344600,3.0823447265625,-0.000839939690195,-0.0004581489483825,0.0018325957935303
1663562601393343500,3.092343505859372,-0.0002290744741912,-0.00167987938039,-0.0006108652451075
1663562601403342300,3.1023422851562508,0.0009926559869199,-0.0004581489483825,-0.0030543261673301
1663562601413341200,3.112341064453126,0.0003817907709162,0.0007635815418325,-0.0024434609804302
1663562601423340000,3.122340087890624,-0.0002290744741912,0.0001527163112768,0.0006108652451075
1663562601433339000,3.132338867187503,-0.0002290744741912,-0.0010690141934901,0.0012217304902151
1663562601443338000,3.142337890625001,-0.0014508049935102,-0.0010690141934901,0.0024434609804302
1663562601453336600,3.1523366699218762,-0.000839939690195,-0.0004581489483825,0.0006108652451075
1663562601463335700,3.1623356933593776,-0.0002290744741912,-0.0010690141934901,-0.0018325957935303
1663562601473334500,3.172334472656253,0.0016035212902352,0.0007635815418325,-0.0006108652451075
1663562601483333400,3.182333496093751,0.0003817907709162,0.0001527163112768,0.0006108652451075
1663562601493332200,3.1923322753906263,0.0009926559869199,0.0001527163112768,0.0018325957935303
1663562601503331000,3.2023310546875017,-0.000839939690195,0.0007635815418325,0.0012217304902151
1663562601513330000,3.212329833984377,-0.0002290744741912,0.0001527163112768,-0.0012217304902151
1663562601523328800,3.2223288574218785,0.0009926559869199,-0.00167987938039,-0.0012217304902151
1663562601533327600,3.2323276367187503,0.0003817907709162,0.0007635815418325,-0.0018325957935303
1663562601543326500,3.2423264160156258,0.0009926559869199,-0.0010690141934901,-0.0006108652451075
1663562601553325300,3.252325195312501,0.0003817907709162,0.0001527163112768,0.0006108652451075
1663562601563324200,3.2623242187500026,-0.000839939690195,0.0007635815418325,0.0018325957935303
1663562601573323000,3.2723229980468815,-0.000839939690195,-0.0004581489483825,0.0006108652451075
1663562601583321900,3.28232177734375,-0.000839939690195,-0.0004581489483825,-0.0012217304902151
1663562601593320700,3.2923208007812512,-0.000839939690195,0.0001527163112768,-0.0030543261673301
1663562601603319600,3.3023195800781266,0.0003817907709162,0.0001527163112768,-0.0012217304902151
1663562601613318400,3.312318359375002,0.0003817907709162,0.0001527163112768,0.0
1663562601623317200,3.322317138671881,-0.0014508049935102,0.0001527163112768,0.0012217304902151
1663562601633316000,3.3323161621093718,-0.000839939690195,-0.0004581489483825,0.0012217304902151
1663562601643315000,3.3423149414062507,-0.0002290744741912,-0.0004581489483825,-0.0006108652451075
1663562601653313800,3.352313720703126,-0.0002290744741912,-0.0004581489483825,-0.0006108652451075
1663562601663312600,3.362312744140624,0.0003817907709162,0.0007635815418325,-0.0006108652451075
1663562601673311500,3.372311523437503,-0.0002290744741912,-0.0010690141934901,-0.0006108652451075
1663562601683310300,3.382310302734375,-0.0002290744741912,0.0007635815418325,-0.0012217304902151
1663562601693309200,3.3923090820312503,-0.0002290744741912,-0.0010690141934901,0.0
1663562601703307800,3.4023078613281257,-0.0002290744741912,0.0007635815418325,0.0030543261673301
1663562601713306600,3.412306640625001,0.0003817907709162,0.00137444678694,0.0006108652451075
1663562601723305200,3.4223051757812506,0.0003817907709162,-0.0004581489483825,-0.0012217304902151
1663562601733304000,3.432303955078126,0.0003817907709162,-0.0004581489483825,0.0
1663562601743303000,3.442302978515624,-0.0002290744741912,-0.0004581489483825,0.0012217304902151
1663562601753301500,3.4523015136718804,0.0009926559869199,-0.0010690141934901,0.0
1663562601763300400,3.4623002929687523,-0.0002290744741912,-0.00167987938039,0.0006108652451075
1663562601773299000,3.472298828125002,-0.0002290744741912,-0.00167987938039,0.0006108652451075
1663562601783297800,3.4822978515624996,0.0003817907709162,-0.0004581489483825,-0.0012217304902151
1663562601793296400,3.4922963867187526,0.0003817907709162,0.0001527163112768,-0.0006108652451075
1663562601803295200,3.5022951660156245,0.0009926559869199,0.0007635815418325,-0.0006108652451075
1663562601813293800,3.5122939453125,0.0003817907709162,0.00137444678694,-0.0012217304902151
1663562601823292700,3.522292724609372,-0.000839939690195,0.00137444678694,-0.0006108652451075
1663562601833291500,3.532291503906251,-0.0002290744741912,0.0001527163112768,0.0006108652451075
1663562601843290000,3.5422900390625003,-0.0002290744741912,-0.0004581489483825,-0.0006108652451075
1663562601853289000,3.5522890625000016,-0.0020616701804101,-0.0010690141934901,0.0
1663562601863287800,3.5622878417968806,0.0003817907709162,-0.0004581489483825,0.0006108652451075
1663562601873286400,3.5722863769531266,0.0009926559869199,-0.0010690141934901,0.0006108652451075
1663562601883285200,3.582285156250002,-0.0002290744741912,-0.0004581489483825,0.0006108652451075
1663562601893284000,3.5922841796875,-0.000839939690195,0.0007635815418325,0.0012217304902151
1663562601903282700,3.602282714843753,-0.0014508049935102,0.0001527163112768,-0.0012217304902151
1663562601913281500,3.6122814941406247,-0.0014508049935102,0.00137444678694,-0.0024434609804302
1663562601923280100,3.6222800292968813,0.0003817907709162,-0.0010690141934901,-0.0012217304902151
1663562601933279000,3.632279052734372,0.0009926559869199,0.0001527163112768,0.0006108652451075
1663562601943277800,3.642277832031251,-0.0002290744741912,-0.0010690141934901,0.0006108652451075
1663562601953276400,3.6522763671875005,-0.0002290744741912,-0.0004581489483825,0.0006108652451075
1663562601963275300,3.6622751464843724,-0.0014508049935102,0.0001527163112768,0.0012217304902151
1663562601973273900,3.6722739257812513,-0.0002290744741912,0.0007635815418325,0.0
1663562601983272700,3.6822727050781303,-0.000839939690195,0.0001527163112768,0.0
1663562601993271600,3.692271484375002,-0.0002290744741912,0.0007635815418325,-0.0006108652451075
1663562602003269600,3.70226953125,-0.0002290744741912,-0.0004581489483825,-0.0006108652451075
1663562602013267700,3.712267822265627,0.0003817907709162,-0.0010690141934901,-0.0012217304902151
1663562602023265500,3.722265625000002,0.0003817907709162,0.0001527163112768,0.0
1663562602033263400,3.7322634277343774,0.0003817907709162,-0.0004581489483825,0.0012217304902151
1663562602043261200,3.7422612304687526,-0.0002290744741912,0.0001527163112768,0.0
1663562602053260000,3.752260009765628,-0.000839939690195,-0.0004581489483825,0.0006108652451075
1663562602063259000,3.7622587890625,0.0003817907709162,0.0001527163112768,-0.0006108652451075
1663562602073257000,3.7722570800781305,0.0009926559869199,0.0001527163112768,-0.0012217304902151
1663562602083255600,3.782255615234373,0.0009926559869199,0.0001527163112768,-0.0006108652451075
1663562602093254400,3.792254394531252,-0.0002290744741912,-0.0004581489483825,0.0
1663562602103253000,3.8022529296875014,-0.000839939690195,0.0007635815418325,-0.0006108652451075
1663562602113251800,3.8122519531250028,-0.0014508049935102,0.0001527163112768,0.0
1663562602123250400,3.8222504882812522,-0.0014508049935102,0.0007635815418325,-0.0006108652451075
1663562602133249300,3.8322492675781277,-0.0002290744741912,-0.00167987938039,-0.0006108652451075
1663562602143248000,3.842247802734377,0.0003817907709162,-0.0010690141934901,0.0006108652451075
1663562602153246700,3.8522468261718785,0.0003817907709162,-0.0004581489483825,0.0
1663562602163245300,3.862245361328128,0.0003817907709162,-0.0004581489483825,-0.0006108652451075
1663562602173244200,3.872244140625,0.0009926559869199,-0.0004581489483825,-0.0006108652451075
1663562602183242800,3.882242675781253,-0.0002290744741912,-0.0004581489483825,-0.0012217304902151
1663562602193241600,3.8922416992187507,-0.000839939690195,0.0007635815418325,0.0
1663562602203240200,3.9022402343750002,-0.000839939690195,-0.0004581489483825,0.0024434609804302
1663562602213239000,3.9122390136718757,-0.0002290744741912,0.0001527163112768,0.0006108652451075
1663562602223238000,3.922237792968751,-0.000839939690195,0.0007635815418325,-0.0006108652451075
1663562602233235700,3.9322355957031263,0.0009926559869199,-0.00167987938039,-0.0006108652451075
1663562602243234600,3.942234619140624,-0.0002290744741912,0.0001527163112768,0.0006108652451075
1663562602253233400,3.9522333984374995,-0.0002290744741912,-0.0004581489483825,0.0
1663562602263232300,3.962232177734375,-0.0002290744741912,0.0001527163112768,0.0
1663562602273230800,3.9722309570312504,-0.0002290744741912,-0.0004581489483825,0.0018325957935303
1663562602283229700,3.982229736328126,-0.000839939690195,0.0007635815418325,0.0006108652451075
1663562602293228300,3.9922282714843718,-0.0002290744741912,0.0001527163112768,0.0
1663562602303228000,4.002227783203125,-0.0002290744741912,-0.0004581489483825,-0.0012217304902151
1663562602313227300,4.012227294921878,0.0003817907709162,0.0001527163112768,0.0
1663562602323227000,4.022226806640628,-0.000839939690195,0.0007635815418325,0.0006108652451075
1663562602333226500,4.0322265625,0.0003817907709162,0.0001527163112768,0.0012217304902151
1663562602343226000,4.04222607421875,-0.000839939690195,0.0001527163112768,-0.0012217304902151
1663562602353225000,4.052224853515625,-0.0002290744741912,-0.0004581489483825,-0.0024434609804302
1663562602363223600,4.0622236328125005,0.0009926559869199,-0.0004581489483825,-0.0012217304902151
1663562602373223200,4.07222314453125,0.0003817907709162,-0.0004581489483825,0.0024434609804302
1663562602383221800,4.0822216796875,-0.0014508049935102,-0.0004581489483825,0.0024434609804302
1663562602393220600,4.092220703125001,-0.0014508049935102,0.0007635815418325,0.0024434609804302
1663562602403219200,4.102219238281251,-0.000839939690195,0.0001527163112768,-0.0006108652451075
1663562602413218000,4.112218017578126,-0.000839939690195,0.00137444678694,-0.0018325957935303
1663562602423217000,4.122216796875001,0.0003817907709162,0.0001527163112768,-0.0006108652451075
1663562602433215700,4.132215820312503,0.0003817907709162,0.0001527163112768,0.0006108652451075
1663562602443214600,4.142214599609375,0.0003817907709162,-0.0004581489483825,0.0
1663562602453213400,4.15221337890625,0.0003817907709162,0.0001527163112768,-0.0006108652451075
1663562602463212300,4.1622124023437514,0.0009926559869199,-0.0004581489483825,-0.0018325957935303
1663562602473211400,4.172211425781253,-0.000839939690195,-0.00167987938039,-0.0012217304902151
1663562602483210500,4.182210449218751,-0.000839939690195,-0.0010690141934901,0.0012217304902151
1663562602493209300,4.192209228515626,-0.000839939690195,0.0001527163112768,0.0018325957935303
1663562602503208400,4.20220849609375,-0.000839939690195,0.0001527163112768,0.0030543261673301
1663562602513207600,4.212207519531251,-0.000839939690195,0.0001527163112768,0.0006108652451075
1663562602523206700,4.2222065429687525,-0.0002290744741912,0.0001527163112768,-0.0006108652451075
1663562602533206300,4.232206298828125,0.0016035212902352,0.0001527163112768,-0.0018325957935303
1663562602543205400,4.242205322265626,0.0003817907709162,0.0007635815418325,-0.0006108652451075
1663562602553204500,4.25220458984375,0.0003817907709162,-0.0004581489483825,0.0
1663562602563203300,4.262203369140625,-0.0002290744741912,-0.0004581489483825,0.0006108652451075
1663562602573202400,4.2722023925781265,-0.000839939690195,-0.0010690141934901,0.0
1663562602583201500,4.282201416015628,-0.0002290744741912,-0.0010690141934901,-0.0012217304902151
1663562602593200600,4.292200683593752,-0.0002290744741912,0.0007635815418325,0.0
1663562602603199700,4.302199707031253,0.0009926559869199,0.0001527163112768,0.0
1663562602613198800,4.312198730468751,0.0003817907709162,0.00137444678694,0.0006108652451075
1663562602623197700,4.322197753906252,-0.000839939690195,0.0007635815418325,0.0012217304902151
1663562602633196800,4.33219677734375,0.0003817907709162,-0.0004581489483825,0.0
1663562602643196000,4.342195800781251,-0.0002290744741912,0.0001527163112768,-0.0012217304902151
1663562602653195000,4.3521950683593715,0.0009926559869199,-0.0004581489483825,-0.0012217304902151
1663562602663194000,4.3621940917968764,0.0003817907709162,-0.00167987938039,0.0
1663562602673193000,4.372192871093752,0.0003817907709162,-0.00167987938039,0.0
1663562602683192000,4.382192138671876,-0.000839939690195,-0.0004581489483825,-0.0012217304902151
1663562602693191200,4.392191162109377,0.0003817907709162,-0.0010690141934901,-0.0006108652451075
1663562602703190300,4.402190185546878,0.0003817907709162,0.0007635815418325,-0.0012217304902151
1663562602713189000,4.412189208984373,0.0003817907709162,0.0007635815418325,-0.0006108652451075
1663562602723188200,4.422188232421881,-0.0002290744741912,0.0001527163112768,0.0
1663562602733187300,4.432187255859372,-0.0002290744741912,0.0007635815418325,-0.0006108652451075
1663562602743186200,4.442186279296877,0.0003817907709162,-0.00167987938039,-0.0006108652451075
1663562602753185000,4.452185058593752,0.0009926559869199,-0.00167987938039,-0.0006108652451075
1663562602763183900,4.462183837890624,-0.000839939690195,0.0001527163112768,-0.0006108652451075
1663562602773182700,4.472182617187503,-0.0002290744741912,0.0007635815418325,0.0
1663562602783181600,4.482181640625001,-0.0002290744741912,-0.0004581489483825,0.0
1663562602793180400,4.492180419921876,-0.0002290744741912,0.0001527163112768,0.0
1663562602803179000,4.502178955078126,-0.000839939690195,0.0001527163112768,0.0006108652451075
1663562602813177900,4.512177734375001,-0.0002290744741912,0.0001527163112768,-0.0012217304902151
1663562602823176400,4.522176513671877,-0.0002290744741912,-0.0004581489483825,-0.0006108652451075
1663562602833175300,4.532175292968752,-0.000839939690195,-0.0010690141934901,-0.0012217304902151
1663562602843174000,4.5421738281250015,-0.0002290744741912,-0.0004581489483825,0.0
1663562602853172700,4.552172851562503,-0.0002290744741912,-0.00167987938039,0.0006108652451075
1663562602863171300,4.562171386718752,0.0003817907709162,-0.0010690141934901,-0.0006108652451075
1663562602873170200,4.572170166015628,0.0003817907709162,-0.0004581489483825,-0.0006108652451075
1663562602883168800,4.582168701171881,-0.000839939690195,-0.0004581489483825,0.0024434609804302
1663562602893167600,4.5921677246093715,-0.0002290744741912,0.0007635815418325,0.0018325957935303
1663562602903166200,4.6021662597656245,0.0003817907709162,0.0001527163112768,0.0006108652451075
1663562602913165000,4.6121650390625,-0.0002290744741912,-0.0010690141934901,-0.0012217304902151
1663562602923163600,4.622163574218753,0.0003817907709162,-0.0004581489483825,-0.0012217304902151
1663562602933162500,4.632162597656251,0.0003817907709162,-0.0004581489483825,0.0
1663562602943161300,4.642161376953126,0.0003817907709162,-0.0010690141934901,0.0006108652451075
1663562602953160000,4.652159912109372,0.0003817907709162,0.0007635815418325,-0.0006108652451075
1663562602963158800,4.662158691406251,0.0003817907709162,-0.0010690141934901,-0.0012217304902151
1663562602973157400,4.672157470703127,0.0003817907709162,0.0001527163112768,-0.0006108652451075
1663562602983156200,4.682156250000002,0.0003817907709162,-0.0010690141934901,0.0006108652451075
1663562602993155000,4.692155029296881,0.0003817907709162,-0.0004581489483825,0.0030543261673301
1663562603003154000,4.702153808593753,-0.0002290744741912,-0.0010690141934901,0.0012217304902151
1663562603013151700,4.7121518554687505,-0.0002290744741912,-0.0010690141934901,0.0
1663562603023149800,4.722149902343752,-0.0002290744741912,0.0001527163112768,-0.0012217304902151
1663562603033148400,4.732148437500001,-0.0002290744741912,-0.0010690141934901,-0.0018325957935303
1663562603043146500,4.742146484375002,0.0003817907709162,-0.0004581489483825,-0.0012217304902151
1663562603053145000,4.752145019531252,0.0009926559869199,0.0007635815418325,0.0
1663562603063144200,4.762144287109372,0.0003817907709162,-0.0004581489483825,0.0006108652451075
1663562603073142300,4.772142333984373,0.0003817907709162,-0.0004581489483825,-0.0018325957935303
1663562603083140900,4.782140869140626,0.0016035212902352,0.0001527163112768,-0.0024434609804302
1663562603093139700,4.792139648437502,-0.000839939690195,0.0001527163112768,-0.0012217304902151
1663562603103138600,4.802138671875003,-0.0002290744741912,-0.0004581489483825,0.0006108652451075
1663562603113137200,4.8121372070312525,0.0003817907709162,0.0001527163112768,0.0024434609804302
1663562603123136000,4.822135986328128,0.0003817907709162,0.0007635815418325,0.0012217304902151
1663562603133134800,4.832134765625,-0.000839939690195,0.0007635815418325,-0.0006108652451075
1663562603143133400,4.842133544921879,-0.0002290744741912,0.0001527163112768,-0.0018325957935303
1663562603153132300,4.852132324218751,-0.0002290744741912,-0.0004581489483825,-0.0006108652451075
1663562603163131100,4.862131103515626,0.0003817907709162,0.0001527163112768,0.0012217304902151
1663562603173129700,4.8721296386718755,0.0003817907709162,-0.0010690141934901,0.0012217304902151
1663562603183128600,4.882128662109377,-0.0014508049935102,-0.0010690141934901,-0.0006108652451075
1663562603193127200,4.892127197265626,-0.0014508049935102,0.0001527163112768,0.0
1663562603203126000,4.902125976562502,-0.0002290744741912,-0.0004581489483825,0.0006108652451075
1663562603213124600,4.912124511718751,0.0003817907709162,0.0001527163112768,0.0
1663562603223123500,4.922123535156253,0.0003817907709162,0.0007635815418325,-0.0012217304902151
1663562603233122000,4.932122070312502,0.0003817907709162,-0.0004581489483825,-0.0012217304902151
1663562603243121000,4.942120849609374,-0.0002290744741912,-0.0010690141934901,0.0
1663562603253119700,4.952119628906253,-0.0002290744741912,-0.0010690141934901,0.0006108652451075
1663562603263118300,4.962118408203125,0.0003817907709162,-0.0010690141934901,0.0012217304902151
1663562603273117200,4.972117187500004,0.0003817907709162,0.0001527163112768,-0.0006108652451075
1663562603283115800,4.982115722656253,-0.0002290744741912,-0.0004581489483825,-0.0024434609804302
1663562603293114400,4.992114257812503,0.0009926559869199,0.0007635815418325,-0.0018325957935303
1663562603303113200,5.002113281250004,-0.000839939690195,0.0007635815418325,0.0
1663562603313112600,5.012112548828128,0.0003817907709162,0.00137444678694,0.0012217304902151
1663562603323112200,5.022112304687504,-0.0014508049935102,0.0007635815418325,0.0006108652451075
1663562603333111000,5.0321110839843755,0.0003817907709162,-0.0004581489483825,-0.0006108652451075
1663562603343110700,5.042110595703129,-0.0002290744741912,-0.0004581489483825,-0.0012217304902151
1663562603353109500,5.052109619140623,0.0009926559869199,-0.0004581489483825,-0.0012217304902151
1663562603363107800,5.06210791015625,-0.0002290744741912,-0.0004581489483825,-0.0006108652451075
1663562603373107500,5.072107421875003,-0.000839939690195,0.0001527163112768,0.0018325957935303
1663562603383106000,5.082105957031253,-0.0002290744741912,0.0001527163112768,0.0024434609804302
1663562603393105000,5.092104980468754,-0.0002290744741912,-0.0004581489483825,0.0006108652451075
1663562603403103500,5.102103515625004,0.0003817907709162,0.0001527163112768,0.0
1663562603413102300,5.1121022949218755,0.0003817907709162,0.0001527163112768,-0.0012217304902151
1663562603423101000,5.122100830078125,-0.0002290744741912,0.0001527163112768,-0.0006108652451075
1663562603433099800,5.132099853515626,-0.000839939690195,-0.0004581489483825,0.0006108652451075
1663562603443098600,5.142098632812498,-0.000839939690195,0.0007635815418325,0.0
1663562603453097200,5.152097167968748,-0.000839939690195,0.0007635815418325,0.0006108652451075
1663562603463096000,5.162095947265627,0.0003817907709162,-0.0004581489483825,-0.0006108652451075
1663562603473095000,5.172094970703128,-0.0002290744741912,0.0007635815418325,-0.0006108652451075
1663562603483093500,5.182093505859378,-0.000839939690195,0.0001527163112768,0.0
1663562603493092400,5.192092285156249,-0.0002290744741912,-0.0010690141934901,0.0
1663562603503091200,5.202091308593751,0.0003817907709162,-0.0004581489483825,0.0024434609804302
1663562603513089800,5.21208984375,0.0003817907709162,-0.0004581489483825,0.0024434609804302
1663562603523088600,5.222088623046879,0.0003817907709162,-0.0010690141934901,0.0
1663562603533087500,5.232087402343751,0.0003817907709162,0.0001527163112768,-0.0012217304902151
1663562603543086300,5.2420864257812525,0.0003817907709162,0.0001527163112768,-0.0024434609804302
1663562603553085200,5.252085205078124,-0.0014508049935102,0.00137444678694,-0.0012217304902151
1663562603563084000,5.262083984375003,-0.0002290744741912,-0.0004581489483825,0.0012217304902151
1663562603573083000,5.272082763671875,0.0003817907709162,-0.0010690141934901,0.0018325957935303
1663562603583081700,5.282081787109377,-0.000839939690195,-0.00167987938039,0.0006108652451075
1663562603593080800,5.292080810546878,0.0009926559869199,0.0007635815418325,0.0
1663562603603079700,5.30207958984375,0.0009926559869199,-0.0004581489483825,-0.0006108652451075
1663562603613078500,5.312078613281251,0.0003817907709162,0.0007635815418325,-0.0006108652451075
1663562603623077400,5.322077392578123,-0.0002290744741912,0.0007635815418325,0.0
1663562603633076200,5.332076171875002,-0.0002290744741912,0.0007635815418325,0.0006108652451075
1663562603643075000,5.342074951171874,-0.0002290744741912,0.0001527163112768,0.0
1663562603653074000,5.352073974609375,0.0003817907709162,-0.0004581489483825,0.0
1663562603663072800,5.362072753906254,-0.0002290744741912,-0.0010690141934901,-0.0006108652451075
1663562603673071600,5.372071533203126,-0.0002290744741912,-0.0010690141934901,-0.0006108652451075
1663562603683070500,5.3820705566406275,0.0003817907709162,-0.0010690141934901,-0.0006108652451075
1663562603693069300,5.392069335937499,-0.0002290744741912,-0.0010690141934901,-0.0012217304902151
1663562603703068200,5.402068115234378,-0.0002290744741912,0.0007635815418325,-0.0006108652451075
1663562603713067000,5.41206689453125,0.0003817907709162,0.0001527163112768,-0.0006108652451075
1663562603723065900,5.422065917968752,-0.0002290744741912,0.0007635815418325,0.0006108652451075
1663562603733064700,5.4320646972656235,0.0003817907709162,-0.0004581489483825,0.0
1663562603743063600,5.4420634765625024,-0.0002290744741912,0.0001527163112768,0.0
1663562603753062400,5.452062500000004,-0.0002290744741912,0.0001527163112768,-0.0006108652451075
1663562603763061200,5.462061279296876,-0.0002290744741912,-0.0004581489483825,0.0
1663562603773060000,5.472060058593755,-0.000839939690195,-0.0004581489483825,0.0
1663562603783058400,5.482058349609375,-0.0002290744741912,0.0007635815418325,-0.0012217304902151
1663562603793057300,5.492057373046876,0.0009926559869199,0.0007635815418325,-0.0012217304902151
1663562603803056400,5.502056396484377,-0.0002290744741912,-0.0004581489483825,-0.0012217304902151
1663562603813055000,5.512054931640627,-0.000839939690195,-0.0004581489483825,0.0006108652451075
1663562603823053800,5.522053710937499,-0.000839939690195,-0.0010690141934901,0.0006108652451075
1663562603833052700,5.532052734375,-0.0002290744741912,-0.0004581489483825,0.0006108652451075
1663562603843051500,5.542051513671879,-0.000839939690195,0.0001527163112768,0.0006108652451075
1663562603853050000,5.552050048828129,-0.0002290744741912,-0.0004581489483825,0.0
1663562603863049000,5.562049072265623,0.0003817907709162,-0.0010690141934901,-0.0006108652451075
1663562603873047800,5.572047851562502,-0.000839939690195,-0.0004581489483825,-0.0006108652451075
1663562603883046400,5.582046386718751,-0.0002290744741912,0.0001527163112768,0.0
1663562603893045000,5.592044921875001,-0.0002290744741912,0.0001527163112768,-0.0006108652451075
1663562603903043800,5.602043945312502,0.0003817907709162,-0.0004581489483825,-0.0006108652451075
1663562603913042400,5.612042480468752,0.0003817907709162,0.0001527163112768,0.0
1663562603923041300,5.6220412597656235,-0.0002290744741912,-0.0004581489483825,-0.0006108652451075
1663562603933039900,5.632039794921873,0.0009926559869199,-0.0010690141934901,0.0
1663562603943038700,5.642038818359374,0.0003817907709162,0.0007635815418325,-0.0006108652451075
1663562603953037300,5.652037353515624,-0.0002290744741912,-0.0004581489483825,0.0
1663562603963036200,5.662036132812503,0.0003817907709162,0.0001527163112768,-0.0006108652451075
1663562603973035000,5.672034912109375,0.0009926559869199,0.0001527163112768,-0.0006108652451075
1663562603983033600,5.682033691406254,-0.0002290744741912,-0.0004581489483825,-0.0006108652451075
1663562603993032400,5.692032470703126,0.0003817907709162,-0.0004581489483825,-0.0006108652451075
1663562604003031300,5.7020312500000045,-0.0002290744741912,0.0001527163112768,0.0
1663562604013029400,5.712029296875002,0.0003817907709162,-0.0004581489483825,0.0012217304902151
1663562604023027500,5.72202734375,-0.000839939690195,0.0001527163112768,0.0006108652451075
1663562604033025300,5.7320253906250045,0.0009926559869199,-0.0004581489483825,-0.0006108652451075
1663562604043023000,5.74202319335938,-0.0002290744741912,-0.0004581489483825,-0.0012217304902151
1663562604053022000,5.752021972656252,0.0003817907709162,0.0001527163112768,-0.0012217304902151
1663562604063020500,5.762020507812501,0.0009926559869199,-0.0004581489483825,-0.0006108652451075
1663562604073019100,5.772019042968751,-0.000839939690195,-0.0010690141934901,0.0
1663562604083018200,5.782018310546874,0.0003817907709162,0.0001527163112768,0.0
1663562604093017000,5.792017089843753,-0.0002290744741912,0.0007635815418325,0.0006108652451075
1663562604103015700,5.802015625000003,-0.000839939690195,-0.0004581489483825,0.0
1663562604113014500,5.812014648437504,0.0009926559869199,-0.0004581489483825,-0.0006108652451075
1663562604123013400,5.822013427734376,0.0003817907709162,0.0001527163112768,0.0
1663562604133012000,5.8320119628906255,-0.0002290744741912,0.0001527163112768,-0.0006108652451075
1663562604143010800,5.8420107421875045,-0.0002290744741912,0.0001527163112768,-0.0012217304902151
1663562604153009400,5.852009521484376,0.0009926559869199,-0.00167987938039,0.0
1663562604163008300,5.862008300781248,-0.0002290744741912,0.0001527163112768,0.0
1663562604173007000,5.872007080078127,0.0003817907709162,0.0007635815418325,-0.0006108652451075
1663562604183005700,5.882005615234377,0.0009926559869199,-0.0010690141934901,-0.0006108652451075
1663562604193004500,5.892004638671878,0.0009926559869199,-0.0004581489483825,0.0
1663562604203002600,5.902002685546876,0.0003817907709162,0.0007635815418325,0.0006108652451075
1663562604213001200,5.912001220703125,-0.000839939690195,-0.0004581489483825,0.0006108652451075
1663562604223000000,5.922000000000004,-0.000839939690195,0.0007635815418325,0.0012217304902151
1663562604232999000,5.931999023437498,-0.000839939690195,-0.0010690141934901,0.0
1663562604242997500,5.941997558593748,0.0003817907709162,-0.0010690141934901,0.0
1663562604252996400,5.951996337890627,-0.0002290744741912,-0.0004581489483825,0.0
1663562604262995000,5.961994873046876,-0.0002290744741912,-0.0004581489483825,-0.0006108652451075
1663562604272993800,5.971993896484378,0.0003817907709162,0.0001527163112768,0.0012217304902151
1663562604282992400,5.981992431640627,-0.0002290744741912,-0.0004581489483825,0.0
1663562604292991200,5.991991210937499,-0.000839939690195,0.0001527163112768,-0.0018325957935303
1663562604302989800,6.001989746093749,-0.0002290744741912,0.0001527163112768,-0.0012217304902151
1663562604312989200,6.011989257812502,0.0003817907709162,-0.0010690141934901,-0.0018325957935303
1663562604322988500,6.021988525390626,0.0003817907709162,-0.0004581489483825,0.0
1663562604332988200,6.031988281250001,0.0016035212902352,-0.00167987938039,0.0030543261673301
1663562604342987800,6.041987792968754,-0.000839939690195,-0.0010690141934901,0.0024434609804302
1663562604352986600,6.051986572265626,0.0003817907709162,0.0001527163112768,0.0012217304902151
1663562604362985500,6.061985351562498,-0.0014508049935102,0.0001527163112768,-0.0006108652451075
1663562604372984600,6.071984619140629,-0.000839939690195,0.0007635815418325,-0.0006108652451075
1663562604382983200,6.0819831542968785,-0.0014508049935102,0.0001527163112768,-0.0006108652451075
1663562604392982000,6.09198193359375,-0.0002290744741912,-0.0010690141934901,0.0
1663562604402980600,6.101980712890629,-0.0002290744741912,-0.0004581489483825,-0.0006108652451075
1663562604412979500,6.111979492187501,0.0009926559869199,0.0001527163112768,0.0
1663562604422978000,6.121978027343751,-0.0002290744741912,0.0001527163112768,0.0
1663562604432977000,6.13197680664063,0.0003817907709162,-0.0010690141934901,-0.0006108652451075
1663562604442975700,6.141975830078124,0.0003817907709162,-0.0004581489483825,-0.0006108652451075
1663562604452974300,6.1519743652343735,-0.000839939690195,0.0001527163112768,0.0006108652451075
1663562604462973200,6.1619731445312524,-0.0002290744741912,0.0001527163112768,-0.0012217304902151
1663562604472972000,6.171971923828124,-0.0002290744741912,0.0001527163112768,-0.0006108652451075
1663562604482970600,6.181970703125003,0.0003817907709162,0.0001527163112768,-0.0006108652451075
1663562604492969500,6.191969482421875,-0.0002290744741912,0.0007635815418325,0.0
1663562604502968800,6.201968749999999,-0.0002290744741912,0.0001527163112768,-0.0006108652451075
1663562604512967700,6.2119677734375,0.0003817907709162,-0.00167987938039,0.0
1663562604522966500,6.221966552734379,0.0003817907709162,-0.00167987938039,0.0018325957935303
1663562604532965000,6.231965087890629,-0.0002290744741912,-0.0004581489483825,0.0024434609804302
1663562604542964000,6.241963867187501,0.0003817907709162,0.0007635815418325,0.0
1663562604552962800,6.251962890625002,-0.0002290744741912,0.0001527163112768,-0.0006108652451075
1663562604562961400,6.2619614257812515,0.0003817907709162,0.0001527163112768,-0.0006108652451075
1663562604572960300,6.271960205078123,-0.0002290744741912,-0.0004581489483825,0.0006108652451075
1663562604582959000,6.281958984375002,-0.0002290744741912,0.00137444678694,0.0012217304902151
1663562604592958000,6.291958007812504,0.0003817907709162,0.0007635815418325,-0.0006108652451075
1663562604602957000,6.301957031249998,0.0009926559869199,-0.0010690141934901,-0.0006108652451075
1663562604612956000,6.311955810546884,-0.0002290744741912,-0.0004581489483825,-0.0018325957935303
1663562604622955000,6.321955078125001,0.0009926559869199,-0.0004581489483825,-0.0006108652451075
1663562604632954000,6.331954101562502,-0.0002290744741912,0.0007635815418325,0.0
1663562604642953000,6.341952880859374,-0.0002290744741912,0.0007635815418325,0.0
1663562604652952000,6.351952148437505,-0.0020616701804101,0.0007635815418325,0.0006108652451075
1663562604662951200,6.361951171874999,-0.0002290744741912,0.0001527163112768,-0.0006108652451075
1663562604672950300,6.3719501953125,-0.000839939690195,0.0007635815418325,-0.0012217304902151
1663562604682949400,6.381949462890624,-0.000839939690195,-0.0004581489483825,-0.0006108652451075
1663562604692948500,6.3919484863281255,0.0003817907709162,-0.0010690141934901,0.0018325957935303
1663562604702947300,6.4019472656250045,0.0009926559869199,-0.00167987938039,0.0006108652451075
1663562604712946400,6.411946533203128,-0.0014508049935102,-0.0004581489483825,-0.0006108652451075
1663562604722945500,6.42194555664063,-0.0002290744741912,0.0001527163112768,-0.0018325957935303
1663562604732944600,6.431944580078124,0.0009926559869199,0.0007635815418325,-0.0018325957935303
1663562604742943700,6.441943847656255,0.0003817907709162,0.0007635815418325,-0.0006108652451075
1663562604752942800,6.451942871093749,-0.0002290744741912,-0.0004581489483825,0.0012217304902151
1663562604762942000,6.46194189453125,-0.0002290744741912,0.0001527163112768,0.0012217304902151
1663562604772941000,6.471941162109374,-0.0002290744741912,-0.0004581489483825,0.0006108652451075
1663562604782940200,6.4819401855468755,-0.000839939690195,-0.00167987938039,-0.0006108652451075
1663562604792939300,6.491939208984377,0.0003817907709162,-0.0010690141934901,-0.0012217304902151
1663562604802938400,6.501938476562501,0.0003817907709162,0.0007635815418325,0.0
1663562604812937500,6.511937500000002,0.0003817907709162,-0.0010690141934901,-0.0006108652451075
1663562604822936600,6.521936523437503,0.0003817907709162,0.0001527163112768,-0.0006108652451075
1663562604832935700,6.531935791015627,-0.000839939690195,0.0001527163112768,-0.0006108652451075
1663562604842934800,6.541934814453128,-0.000839939690195,0.00137444678694,0.0006108652451075
1663562604852934000,6.55193383789063,-0.0002290744741912,0.0007635815418325,0.0012217304902151
1663562604862932700,6.561932617187502,-0.0002290744741912,0.0001527163112768,0.0006108652451075
1663562604872931800,6.571931884765625,-0.000839939690195,-0.0010690141934901,-0.0006108652451075
1663562604882931000,6.581930908203127,0.0009926559869199,-0.0004581489483825,-0.0006108652451075
1663562604892929800,6.591929687499999,0.0003817907709162,-0.00167987938039,0.0
1663562604902928600,6.6019287109375,0.0016035212902352,-0.00167987938039,0.0
1663562604912927500,6.611927490234379,-0.0002290744741912,-0.0004581489483825,0.0
1663562604922926300,6.621926269531251,-0.0002290744741912,-0.0004581489483825,0.0
1663562604932925200,6.631925292968752,-0.0002290744741912,0.00137444678694,0.0012217304902151
1663562604942924000,6.641924072265624,-0.0002290744741912,-0.0004581489483825,0.0
1663562604952922600,6.651922607421874,0.0003817907709162,-0.0004581489483825,0.0
1663562604962921500,6.661921386718753,0.0003817907709162,-0.0004581489483825,-0.0012217304902151
1663562604972920000,6.671920166015624,0.0009926559869199,-0.0004581489483825,-0.0006108652451075
1663562604982919000,6.681918945312503,0.0003817907709162,0.0001527163112768,0.0012217304902151
1663562604992917800,6.691917724609375,-0.0002290744741912,-0.0004581489483825,0.0006108652451075
1663562605002916400,6.701916259765625,0.0009926559869199,-0.0004581489483825,0.0012217304902151
1663562605012914400,6.711914550781252,-0.0002290744741912,-0.0004581489483825,0.0006108652451075
1663562605022912300,6.721912353515627,0.0003817907709162,-0.0004581489483825,-0.0006108652451075
1663562605032910300,6.731910400390625,0.0003817907709162,-0.0010690141934901,-0.0006108652451075
1663562605042908400,6.741908447265629,-0.0002290744741912,-0.0004581489483825,0.0006108652451075
1663562605052906200,6.751906250000005,0.0003817907709162,0.0007635815418325,0.0018325957935303
1663562605062904800,6.761904785156254,0.0003817907709162,0.0007635815418325,0.0
1663562605072904700,6.771904785156252,-0.0002290744741912,0.0001527163112768,-0.0030543261673301
1663562605082903600,6.781903564453124,-0.0014508049935102,0.0001527163112768,-0.0024434609804302
1663562605092901600,6.791901611328129,0.0009926559869199,-0.0010690141934901,-0.0006108652451075
1663562605102900500,6.801900390625001,0.0003817907709162,-0.0004581489483825,-0.0006108652451075
1663562605112899000,6.81189916992188,-0.0002290744741912,-0.0010690141934901,-0.0006108652451075
1663562605122898000,6.8218979492187515,0.0003817907709162,-0.00167987938039,-0.0012217304902151
1663562605132896800,6.831896728515623,-0.0014508049935102,0.0001527163112768,-0.0006108652451075
1663562605142895400,6.841895263671873,-0.0002290744741912,0.0001527163112768,0.0006108652451075
1663562605152894200,6.851894287109374,-0.0002290744741912,0.0007635815418325,0.0018325957935303
1663562605162892800,6.861892822265624,-0.0002290744741912,-0.0004581489483825,0.0006108652451075
1663562605172891600,6.871891601562503,0.0009926559869199,-0.0004581489483825,0.0
1663562605182890500,6.8818903808593745,-0.0002290744741912,-0.00167987938039,-0.0006108652451075
1663562605192889000,6.8918891601562535,0.0009926559869199,-0.0010690141934901,-0.0024434609804302
1663562605202888000,6.901887939453125,-0.0002290744741912,0.0001527163112768,-0.0006108652451075
1663562605212886500,6.911886474609375,-0.000839939690195,-0.0004581489483825,0.0012217304902151
1663562605222885400,6.921885498046876,-0.000839939690195,-0.0004581489483825,0.0012217304902151
1663562605232884200,6.931884277343748,-0.000839939690195,0.0007635815418325,0.0
1663562605242882800,6.941882812500005,0.0003817907709162,0.0007635815418325,-0.0012217304902151
1663562605252881700,6.951881591796877,0.0003817907709162,-0.0004581489483825,-0.0012217304902151
1663562605262880500,6.961880615234378,0.0003817907709162,-0.0010690141934901,0.0006108652451075
1663562605272879000,6.9718791503906274,-0.000839939690195,-0.0004581489483825,0.0018325957935303
1663562605282878000,6.981877929687499,-0.0002290744741912,-0.0010690141934901,0.0006108652451075
1663562605292876500,6.991876464843749,-0.0002290744741912,-0.0010690141934901,0.0006108652451075
1663562605302875400,7.00187548828125,0.0003817907709162,-0.0010690141934901,-0.0006108652451075
1663562605312874800,7.011874755859374,-0.0002290744741912,0.0001527163112768,-0.0006108652451075
1663562605322874400,7.021874267578127,-0.000839939690195,0.0001527163112768,0.0006108652451075
1663562605332874000,7.031874023437503,-0.000839939690195,0.0001527163112768,0.0006108652451075
1663562605342873300,7.0418732910156265,0.0003817907709162,0.0001527163112768,0.0006108652451075
1663562605352873000,7.051873046875002,-0.0002290744741912,0.0001527163112768,0.0006108652451075
1663562605362871800,7.061871826171874,0.0009926559869199,0.0009162978967651,-0.000534507096745
1663562605372869400,7.071869384765627,0.0003817907709162,0.0003054326225537,-0.0011453722836449
1663562605382868000,7.081867919921876,-0.0002290744741912,0.0009162978967651,-0.00236710277386
1663562605392867300,7.09186743164063,-0.0014508049935102,0.0009162978967651,-0.0011453722836449
1663562605402866200,7.1018662109375015,-0.000839939690195,0.0003054326225537,-0.000534507096745
1663562605412865000,7.111864990234373,0.0003817907709162,0.0003054326225537,0.00068722339347
1663562605422863600,7.121863525390623,0.0003817907709162,-0.0009162978967651,7.63581556384e-05
1663562605432862500,7.131862548828124,0.0016035212902352,-0.0009162978967651,-0.000534507096745
1663562605442861000,7.141861083984374,0.0003817907709162,-0.0009162978967651,-0.0011453722836449
1663562605452860000,7.151859863281253,-0.0002290744741912,-0.0009162978967651,-0.0011453722836449
1663562605462858800,7.1618586425781245,0.0003817907709162,0.0009162978967651,-0.000534507096745
1663562605472857300,7.1718574218750035,-0.0002290744741912,0.0009162978967651,0.0012980886967852
1663562605482856200,7.181856201171875,-0.0002290744741912,0.001527163083665,0.0012980886967852
1663562605492855000,7.191854980468754,-0.0002290744741912,-0.0009162978967651,-0.000534507096745
1663562605502853600,7.201853515625004,-0.0002290744741912,-0.0003054326225537,-0.000534507096745
1663562605512852500,7.211852539062498,-0.0002290744741912,-0.0003054326225537,0.00068722339347
1663562605522851300,7.221851318359377,0.0003817907709162,-0.0009162978967651,0.0012980886967852
1663562605532850000,7.231849853515627,-0.0002290744741912,0.0003054326225537,0.0019089538836851
1663562605542848800,7.241848876953128,-0.0014508049935102,-0.0003054326225537,-0.0011453722836449
1663562605552847400,7.2518474121093774,-0.0002290744741912,-0.0009162978967651,-0.0011453722836449
1663562605562846200,7.261846191406249,-0.0002290744741912,-0.0003054326225537,7.63581556384e-05
1663562605572844800,7.271844726562499,0.0003817907709162,-0.0003054326225537,0.00068722339347
1663562605582843600,7.28184375,0.0003817907709162,-0.0003054326225537,0.0012980886967852
1663562605592842500,7.291842529296879,0.0003817907709162,-0.0003054326225537,7.63581556384e-05
1663562605602841300,7.301841308593751,-0.0002290744741912,0.0003054326225537,-0.0017562375869601
1663562605612840000,7.3118398437500005,-0.0002290744741912,-0.0003054326225537,-0.0011453722836449
1663562605622838800,7.321838867187502,-0.000839939690195,0.0003054326225537,-0.0011453722836449
1663562605632837600,7.331837646484374,-0.0014508049935102,-0.0009162978967651,-0.000534507096745
1663562605642836200,7.341836181640623,-0.0020616701804101,-0.0003054326225537,-0.0011453722836449
1663562605652835000,7.351834960937502,0.0009926559869199,-0.0009162978967651,7.63581556384e-05
1663562605662833700,7.361833740234374,0.0022143865935504,-0.0009162978967651,0.0012980886967852
1663562605672832500,7.371832519531253,0.0016035212902352,0.0003054326225537,-0.000534507096745
1663562605682831600,7.381831542968754,0.0022143865935504,0.0027488935738801,-0.0035888333804905
1663562605692830500,7.391830566406249,-0.000839939690195,0.0021380283869802,-0.0029779679607599
1663562605702829300,7.401829345703128,-0.0020616701804101,0.0027488935738801,0.0031306843739002
1663562605712828400,7.411828369140629,-0.004505131393671,-0.0027488935738801,0.0147371236234903
1663562605722827300,7.421827148437501,-0.0032834007870405,-0.0039706239476799,0.0061850105412304
1663562605732826400,7.431826416015625,-0.0014508049935102,-0.0027488935738801,0.00068722339347
1663562605742825500,7.441825439453126,0.0028252517804503,-0.0021380283869802,-0.0048105637542903
1663562605752824600,7.451824462890627,0.0040469821542501,-0.0021380283869802,-0.00664315931499
1663562605762823700,7.461823730468751,0.0022143865935504,-0.0021380283869802,-0.00236710277386
1663562605772822500,7.471822509765623,0.0022143865935504,0.001527163083665,0.0031306843739002
1663562605782821600,7.481821533203124,-0.000839939690195,0.0045814891345798,0.0025198191870003
1663562605792820700,7.491820800781248,-0.00267253536731,0.0039706239476799,-0.0011453722836449
1663562605802819800,7.5018198242187495,-0.0032834007870405,-0.0009162978967651,-0.0035888333804905
1663562605812818700,7.5118186035156285,0.0003817907709162,-0.00335975876078,-0.00236710277386
1663562605822817800,7.521817871093752,0.0016035212902352,-0.00335975876078,0.0019089538836851
1663562605832817000,7.531816894531254,0.0022143865935504,-0.0009162978967651,0.0037415495608001
1663562605842816000,7.541815917968748,0.0009926559869199,0.0003054326225537,0.00068722339347
1663562605852815000,7.551815185546879,0.0003817907709162,0.001527163083665,-0.00664315931499
1663562605862814200,7.561814208984373,-0.0020616701804101,0.0027488935738801,-0.0054214289411902
1663562605872813000,7.571812988281252,-0.0014508049935102,-0.0003054326225537,-0.0017562375869601
1663562605882812200,7.581812255859376,0.0003817907709162,-0.0003054326225537,0.0037415495608001
1663562605892811300,7.591811279296884,0.0022143865935504,-0.00335975876078,0.0067958757281303
1663562605902810400,7.601810302734378,-0.0002290744741912,-0.001527163083665,0.0012980886967852
1663562605912809500,7.611809570312502,-0.0014508049935102,-0.0003054326225537,-0.0060322941280901
1663562605922808300,7.621808349609374,-0.000839939690195,0.0009162978967651,-0.0072540249675512
1663562605932807400,7.631807373046875,-0.0002290744741912,0.00335975876078,0.00068722339347
1663562605942806500,7.641806640624999,0.0009926559869199,0.001527163083665,0.0061850105412304
1663562605952805600,7.6518056640625005,-0.0002290744741912,0.0021380283869802,0.0049632801674306
1663562605962804500,7.6618044433593795,-0.0002290744741912,-0.0003054326225537,-0.0017562375869601
1663562605972803600,7.671803466796874,-0.000839939690195,-0.0009162978967651,-0.0054214289411902
1663562605982802400,7.681802490234375,0.0016035212902352,-0.00335975876078,-0.00236710277386
1663562605992801300,7.691801269531254,0.0022143865935504,-0.0027488935738801,0.0037415495608001
1663562606002800000,7.701800048828126,-0.0002290744741912,0.0009162978967651,0.0055741453543305
1663562606012798200,7.711798095703124,-0.0002290744741912,0.0003054326225537,0.0012980886967852
1663562606022796300,7.721796386718751,-0.0014508049935102,0.0027488935738801,-0.0035888333804905
1663562606032794400,7.731794433593748,-0.0014508049935102,0.0021380283869802,-0.0048105637542903
1663562606042792200,7.7417922363281235,-0.000839939690195,0.0009162978967651,7.63581556384e-05
1663562606052790000,7.751790039062499,-0.0002290744741912,0.0003054326225537,0.0037415495608001
1663562606062788000,7.7617880859375035,0.0009926559869199,-0.0009162978967651,0.0019089538836851
1663562606072787000,7.771786865234375,-0.0002290744741912,-0.001527163083665,-0.000534507096745
1663562606082785300,7.781785400390625,0.0009926559869199,-0.0009162978967651,-0.0029779679607599
1663562606092783900,7.791783935546874,0.0009926559869199,0.0003054326225537,-0.0017562375869601
1663562606102782700,7.801782714843753,-0.0014508049935102,0.0021380283869802,0.00068722339347
1663562606112781300,7.811781250000003,-0.0020616701804101,0.001527163083665,0.0019089538836851
1663562606122780200,7.821780273437504,0.0003817907709162,0.0003054326225537,0.0019089538836851
1663562606132779000,7.831779052734376,0.0009926559869199,0.0003054326225537,7.63581556384e-05
1663562606142777600,7.8417775878906255,0.0009926559869199,-0.0009162978967651,-0.000534507096745
1663562606152776400,7.8517763671875045,0.0022143865935504,-0.001527163083665,-0.0011453722836449
1663562606162775000,7.861775146484376,0.0003817907709162,-0.0009162978967651,0.00068722339347
1663562606172774000,7.871773925781248,-0.0020616701804101,0.0009162978967651,0.0019089538836851
1663562606182772700,7.881772705078127,-0.0002290744741912,0.001527163083665,0.0025198191870003
1663562606192771300,7.891771240234377,-0.0032834007870405,0.001527163083665,0.0025198191870003
1663562606202770200,7.901770263671878,-0.0002290744741912,0.0003054326225537,7.63581556384e-05
1663562606212768800,7.911768798828128,0.0009926559869199,-0.001527163083665,-0.0017562375869601
1663562606222767600,7.921767578124999,0.0009926559869199,0.0003054326225537,-0.00236710277386
1663562606232766500,7.931766357421878,0.0009926559869199,0.0003054326225537,-0.000534507096745
1663562606242765000,7.94176513671875,-0.0002290744741912,-0.0003054326225537,7.63581556384e-05
1663562606252764000,7.951763916015629,0.0003817907709162,0.0003054326225537,7.63581556384e-05
1663562606262762800,7.961762695312501,-0.0002290744741912,0.0009162978967651,-0.000534507096745
1663562606272761300,7.971761230468751,-0.0014508049935102,0.0027488935738801,-0.0017562375869601
1663562606282760200,7.981760253906252,-0.000839939690195,-0.0003054326225537,-0.0011453722836449
1663562606292759000,7.991759033203124,0.0016035212902352,-0.0009162978967651,-0.000534507096745
1663562606302757600,8.001757568359373,0.0022143865935504,-0.0021380283869802,0.0012980886967852
1663562606312757000,8.011757080078127,0.0003817907709162,-0.0009162978967651,0.0019089538836851
1663562606322756600,8.021756591796873,-0.0002290744741912,-0.0003054326225537,-0.000534507096745
1663562606332756000,8.031755859375004,-0.0020616701804101,0.0003054326225537,-0.0011453722836449
1663562606342755800,8.041755859375002,-0.0014508049935102,0.0003054326225537,-0.000534507096745
1663562606352755500,8.051755371093748,0.0003817907709162,-0.0009162978967651,0.00068722339347
1663562606362754600,8.061754638671879,0.0016035212902352,0.0003054326225537,7.63581556384e-05
1663562606372753400,8.07175341796875,0.0003817907709162,-0.0003054326225537,-0.0011453722836449
1663562606382752500,8.081752441406252,-0.0002290744741912,0.0009162978967651,-0.000534507096745
1663562606392751400,8.091751464843753,-0.000839939690195,0.0003054326225537,7.63581556384e-05
1663562606402750000,8.101750000000003,-0.000839939690195,0.0003054326225537,0.0012980886967852
1663562606412748800,8.111748779296875,-0.0002290744741912,0.0003054326225537,0.0012980886967852
1663562606422747600,8.121747558593754,0.0003817907709162,-0.001527163083665,7.63581556384e-05
1663562606432746200,8.131746337890625,-0.0002290744741912,-0.001527163083665,7.63581556384e-05
1663562606442745000,8.141745117187504,0.0016035212902352,-0.0009162978967651,-0.0011453722836449
1663562606452743700,8.151743652343754,0.0003817907709162,0.0003054326225537,-0.000534507096745
1663562606462742500,8.161742431640626,-0.0032834007870405,0.0021380283869802,0.0019089538836851
1663562606472741000,8.171741210937505,-0.0014508049935102,0.0003054326225537,0.0019089538836851
1663562606482740000,8.181739990234377,-0.000839939690195,-0.0003054326225537,-0.000534507096745
1663562606492738600,8.191738525390626,0.0022143865935504,-0.001527163083665,-0.00236710277386
1663562606502737400,8.201737304687498,0.0028252517804503,-0.0027488935738801,-0.0011453722836449
1663562606512736000,8.211736083984377,0.0009926559869199,0.0003054326225537,7.63581556384e-05
1663562606522734800,8.221734863281249,-0.0020616701804101,0.0009162978967651,0.0019089538836851
1663562606532733400,8.231733398437498,-0.0020616701804101,0.001527163083665,0.0012980886967852
1663562606542732300,8.241732177734377,-0.000839939690195,0.0003054326225537,0.00068722339347
1663562606552731100,8.251731201171879,0.0016035212902352,-0.001527163083665,-0.0011453722836449
1663562606562729700,8.261729736328128,0.0016035212902352,-0.0003054326225537,-0.0017562375869601
1663562606572728600,8.271728515625,0.0016035212902352,-0.0009162978967651,-0.000534507096745
1663562606582727400,8.281727539062501,-0.0002290744741912,0.0003054326225537,7.63581556384e-05
1663562606592726000,8.29172607421875,-0.0020616701804101,-0.0003054326225537,7.63581556384e-05
1663562606602724900,8.301724853515623,-0.00267253536731,0.0003054326225537,-0.000534507096745
1663562606612723700,8.311723632812502,-0.0014508049935102,-0.0003054326225537,0.0012980886967852
1663562606622722300,8.321722412109374,0.0003817907709162,-0.001527163083665,0.0019089538836851
1663562606632721200,8.331721191406253,0.0022143865935504,-0.001527163083665,0.00068722339347
1663562606642719700,8.341719726562502,0.0009926559869199,0.0003054326225537,-0.0011453722836449
1663562606652718600,8.351718505859374,0.0009926559869199,0.001527163083665,-0.0011453722836449
1663562606662717400,8.361717529296875,-0.000839939690195,0.001527163083665,-0.000534507096745
1663562606672716000,8.371716064453125,-0.00267253536731,0.0027488935738801,0.00068722339347
1663562606682715000,8.381714843750004,-0.0014508049935102,0.0003054326225537,0.0012980886967852
1663562606692713700,8.391713623046876,-0.000839939690195,-0.001527163083665,0.00068722339347
1663562606702712300,8.401712402343755,0.0009926559869199,-0.0021380283869802,-0.000534507096745
1663562606712711200,8.411711181640626,0.0022143865935504,-0.0009162978967651,-0.000534507096745
1663562606722710000,8.421709960937498,0.0016035212902352,-0.0003054326225537,-0.0011453722836449
1663562606732708600,8.431708496093748,0.0009926559869199,0.0009162978967651,0.00068722339347
1663562606742707500,8.44170751953125,-0.000839939690195,0.001527163083665,0.00068722339347
1663562606752706000,8.451706054687499,-0.000839939690195,0.0003054326225537,0.0019089538836851
1663562606762705000,8.461704833984378,-0.000839939690195,0.0003054326225537,0.0012980886967852
1663562606772703700,8.471703857421879,-0.0002290744741912,-0.0009162978967651,0.0012980886967852
1663562606782702600,8.481702636718751,-0.0002290744741912,-0.0009162978967651,-0.0011453722836449
1663562606792701400,8.491701416015623,0.0009926559869199,-0.0021380283869802,-0.0017562375869601
1663562606802700500,8.501700439453124,0.0009926559869199,-0.0003054326225537,-0.0011453722836449
1663562606812699400,8.511699462890626,0.0003817907709162,0.0003054326225537,-0.0011453722836449
1663562606822698200,8.521698242187504,-0.0002290744741912,0.0009162978967651,7.63581556384e-05
1663562606832697000,8.531697021484376,-0.0014508049935102,0.0003054326225537,0.0019089538836851
1663562606842696000,8.541696044921878,-0.0014508049935102,0.0009162978967651,0.0012980886967852
1663562606852694800,8.55169482421875,-0.0002290744741912,-0.0021380283869802,-0.0011453722836449
1663562606862693600,8.561693603515629,-0.0002290744741912,-0.0021380283869802,-0.00236710277386
1663562606872692500,8.5716923828125,0.0009926559869199,-0.0009162978967651,-0.000534507096745
1663562606882691300,8.581691406250002,-0.0002290744741912,-0.001527163083665,-0.0011453722836449
1663562606892690200,8.591690185546874,-0.0002290744741912,-0.0003054326225537,7.63581556384e-05
1663562606902689000,8.601688964843753,-0.000839939690195,0.0003054326225537,7.63581556384e-05
1663562606912687900,8.611687988281254,-0.0014508049935102,0.0009162978967651,-0.0017562375869601
1663562606922686700,8.621686767578126,-0.000839939690195,0.001527163083665,-0.0011453722836449
1663562606932685600,8.631685546874998,-0.0002290744741912,0.0003054326225537,0.0012980886967852
1663562606942684400,8.641684326171884,-0.0002290744741912,-0.0009162978967651,0.00068722339347
1663562606952683300,8.651683349609378,0.0009926559869199,-0.001527163083665,0.00068722339347
1663562606962682000,8.66168212890625,0.0009926559869199,-0.0009162978967651,7.63581556384e-05
1663562606972681000,8.671680908203129,-0.000839939690195,0.001527163083665,-0.0017562375869601
1663562606982679800,8.6816796875,-0.0014508049935102,0.0003054326225537,-0.000534507096745
1663562606992678700,8.691678710937502,-0.0014508049935102,0.0021380283869802,0.0019089538836851
1663562607002677500,8.701677490234374,0.0016035212902352,0.0003054326225537,0.0019089538836851
1663562607012675800,8.711675781250001,-0.000839939690195,-0.0003054326225537,-0.000534507096745
1663562607022673700,8.721673583984376,0.0003817907709162,-0.0021380283869802,-0.00236710277386
1663562607032671700,8.731671630859374,0.0009926559869199,-0.0021380283869802,-0.00236710277386
1663562607042669600,8.741669677734379,0.0003817907709162,-0.0003054326225537,-0.000534507096745
1663562607052668000,8.751667968749999,-0.0002290744741912,0.001527163083665,0.0012980886967852
1663562607062666000,8.761666015625003,-0.0020616701804101,0.0021380283869802,7.63581556384e-05
1663562607072664600,8.771664550781253,-0.0014508049935102,0.001527163083665,-0.000534507096745
1663562607082663400,8.781663330078125,0.0003817907709162,0.0003054326225537,-0.000534507096745
1663562607092661800,8.791661865234374,0.0003817907709162,-0.0003054326225537,0.0019089538836851
1663562607102660400,8.801660400390624,0.0016035212902352,-0.0009162978967651,0.0019089538836851
1663562607112659200,8.811659179687503,0.0009926559869199,-0.0039706239476799,7.63581556384e-05
1663562607122658000,8.821657958984375,-0.000839939690195,-0.001527163083665,-0.0017562375869601
1663562607132656600,8.831656738281254,-0.0032834007870405,0.001527163083665,-0.0017562375869601
1663562607142655200,8.841655273437503,-0.0020616701804101,0.0003054326225537,7.63581556384e-05
1663562607152654000,8.851654052734375,0.0003817907709162,0.0009162978967651,0.0019089538836851
1663562607162653000,8.861652832031254,-0.000839939690195,0.001527163083665,0.00068722339347
1663562607172651500,8.871651611328126,0.0009926559869199,-0.0003054326225537,-0.00236710277386
1663562607182650400,8.881650390624998,-0.000839939690195,0.0009162978967651,-0.0029779679607599
1663562607192649000,8.891648925781254,0.0009926559869199,-0.0003054326225537,-0.0017562375869601
1663562607202647000,8.901646972656252,0.0003817907709162,-0.0009162978967651,0.00068722339347
1663562607212646000,8.911645996093753,-0.0002290744741912,-0.0009162978967651,0.0012980886967852
1663562607222644700,8.921644775390625,-0.0002290744741912,0.0003054326225537,0.00068722339347
1663562607232643300,8.931643310546875,-0.0014508049935102,-0.0009162978967651,-0.0011453722836449
1663562607242642200,8.941642089843754,-0.0002290744741912,0.0009162978967651,7.63581556384e-05
1663562607252640800,8.951640869140626,-0.000839939690195,-0.0003054326225537,0.0012980886967852
1663562607262639600,8.961639648437504,-0.0002290744741912,0.001527163083665,0.0012980886967852
1663562607272638500,8.971638427734376,0.0003817907709162,0.0003054326225537,-0.0029779679607599
1663562607282637000,8.981636962890633,0.0009926559869199,-0.0003054326225537,-0.0029779679607599
1663562607292636000,8.991635986328127,0.0009926559869199,-0.0021380283869802,0.0012980886967852
1663562607302634800,9.001634765624999,-0.0002290744741912,-0.0003054326225537,0.0049632801674306
1663562607312634000,9.011634033203123,-0.0014508049935102,-0.0009162978967651,0.0031306843739002
1663562607322633700,9.021633789062498,-0.0014508049935102,-0.0009162978967651,-0.0017562375869601
1663562607332633000,9.03163305664063,-0.000839939690195,0.0009162978967651,-0.0029779679607599
1663562607342633000,9.041633056640634,0.0003817907709162,0.0003054326225537,-0.0011453722836449
1663562607352632300,9.051632324218751,0.0028252517804503,-0.0009162978967651,0.0019089538836851
1663562607362632000,9.061631835937504,0.0022143865935504,-0.001527163083665,0.0031306843739002
1663562607372630500,9.071630615234376,0.0003817907709162,0.0003054326225537,0.0019089538836851
1663562607382629400,9.081629394531248,-0.0020616701804101,0.00335975876078,-0.0054214289411902
1663562607392628500,9.09162841796875,-0.0032834007870405,0.0009162978967651,-0.0109192160889506
1663562607402627300,9.10162744140625,-0.0002290744741912,0.0003054326225537,-0.0035888333804905
1663562607412626000,9.1116259765625,-0.0014508049935102,-0.0003054326225537,0.0049632801674306
1663562607422624800,9.12162475585938,-0.0002290744741912,-0.0003054326225537,0.0067958757281303
1663562607432623600,9.131623535156251,-0.0002290744741912,0.0003054326225537,0.0012980886967852
1663562607442622200,9.141622314453123,0.0003817907709162,-0.0003054326225537,-0.0035888333804905
1663562607452621000,9.151621093750002,0.0016035212902352,-0.0003054326225537,-0.0041996985673904
1663562607462619600,9.161619628906251,0.0009926559869199,0.0021380283869802,0.0012980886967852
1663562607472618500,9.171618408203123,0.0003817907709162,-0.0003054326225537,0.0080176061019301
1663562607482617300,9.181617431640625,-0.0020616701804101,-0.00335975876078,0.0074067409150302
1663562607492616000,9.191615966796874,-0.0020616701804101,-0.0003054326225537,0.0031306843739002
1663562607502615300,9.201615234374998,-0.000839939690195,-0.0003054326225537,-0.0041996985673904
1663562607512614100,9.2116142578125,-0.0002290744741912,-0.0003054326225537,-0.0072540249675512
1663562607522612700,9.221612792968749,-0.000839939690195,0.0003054326225537,-0.0041996985673904
1663562607532611600,9.231611572265628,0.0016035212902352,-0.0003054326225537,0.0019089538836851
1663562607542610200,9.241610107421884,-0.000839939690195,0.0003054326225537,0.0049632801674306
1663562607552609000,9.251609130859379,-0.000839939690195,0.0009162978967651,0.00068722339347
1663562607562607600,9.261607666015628,-0.000839939690195,0.0003054326225537,-0.0035888333804905
1663562607572606500,9.2716064453125,-0.000839939690195,-0.0009162978967651,-0.00236710277386
1663562607582605000,9.28160498046875,-0.0002290744741912,-0.001527163083665,7.63581556384e-05
1663562607592604000,9.29160400390625,0.0003817907709162,-0.0021380283869802,7.63581556384e-05
1663562607602602800,9.301602783203123,0.0009926559869199,-0.0003054326225537,0.0019089538836851
1663562607612601300,9.31160131835938,0.0016035212902352,-0.0003054326225537,0.0012980886967852
1663562607622600200,9.321600097656251,-0.000839939690195,0.0027488935738801,-0.0011453722836449
1663562607632599000,9.331599121093753,-0.0002290744741912,0.0021380283869802,-0.0041996985673904
1663562607642597600,9.341597656250002,0.0009926559869199,0.0009162978967651,-0.00236710277386
1663562607652596500,9.351596435546874,0.0009926559869199,-0.001527163083665,0.0019089538836851
1663562607662595300,9.361595214843753,0.0003817907709162,-0.0021380283869802,0.0049632801674306
1663562607672594000,9.371593994140625,-0.0002290744741912,-0.001527163083665,0.0031306843739002
1663562607682592800,9.381592773437504,-0.0014508049935102,0.0009162978967651,-0.000534507096745
1663562607692591400,9.391591308593753,0.0016035212902352,-0.0003054326225537,-0.0048105637542903
1663562607702590200,9.401590087890625,0.0009926559869199,0.0027488935738801,-0.0035888333804905
1663562607712589000,9.411589111328126,0.0016035212902352,0.00335975876078,-0.0017562375869601
1663562607722587600,9.421587646484376,0.0003817907709162,0.0003054326225537,0.0019089538836851
1663562607732586500,9.431586425781248,-0.0014508049935102,0.0003054326225537,0.0019089538836851
1663562607742585300,9.44158544921875,0.0016035212902352,-0.00335975876078,0.0012980886967852
1663562607752584000,9.451583984374999,-0.0002290744741912,0.0003054326225537,-0.0011453722836449
1663562607762582800,9.461582763671885,-0.000839939690195,0.0009162978967651,-0.0017562375869601
1663562607772581600,9.47158154296875,-0.0002290744741912,0.0003054326225537,-0.000534507096745
1663562607782580200,9.481580322265629,-0.0002290744741912,0.0003054326225537,0.0025198191870003
1663562607792579000,9.4915791015625,0.0016035212902352,-0.0009162978967651,0.0043524149805307
1663562607802578000,9.50157788085938,-0.0002290744741912,0.0021380283869802,7.63581556384e-05
1663562607812576500,9.511576416015629,0.0003817907709162,0.0021380283869802,-0.0048105637542903
1663562607822575600,9.521575683593753,0.0003817907709162,-0.0003054326225537,-0.0060322941280901
1663562607832574500,9.531574462890624,-0.000839939690195,-0.0003054326225537,-0.0035888333804905
1663562607842573600,9.541573486328126,-0.0014508049935102,-0.0009162978967651,0.0037415495608001
1663562607852572400,9.551572509765627,0.0003817907709162,-0.001527163083665,0.0080176061019301
1663562607862571500,9.561571533203129,-0.0002290744741912,-0.0009162978967651,0.0043524149805307
1663562607872570400,9.5715703125,0.0009926559869199,-0.0021380283869802,-0.00236710277386
1663562607882569500,9.581569580078124,0.0009926559869199,-0.0009162978967651,-0.00236710277386
1663562607892568600,9.591568603515618,0.0003817907709162,0.0021380283869802,-0.0011453722836449
1663562607902567700,9.601567626953127,-0.0020616701804101,0.0039706239476799,-0.000534507096745
1663562607912566500,9.611566406249999,-0.00267253536731,0.0027488935738801,0.0019089538836851
1663562607922565600,9.62156567382813,0.0009926559869199,-0.001527163083665,0.0025198191870003
1663562607932564700,9.631564697265624,0.0016035212902352,-0.001527163083665,0.00068722339347
1663562607942563800,9.641563720703118,0.0016035212902352,-0.0021380283869802,-0.0029779679607599
1663562607952563000,9.651562988281249,-0.0002290744741912,-0.0009162978967651,-0.0048105637542903
1663562607962561800,9.661561767578128,0.0016035212902352,-0.0021380283869802,-0.000534507096745
1663562607972561000,9.67156079101563,-0.0014508049935102,0.0003054326225537,0.0061850105412304
1663562607982560000,9.681560058593753,-0.0014508049935102,0.0021380283869802,0.0080176061019301
1663562607992559000,9.691559082031254,0.0003817907709162,0.001527163083665,0.0012980886967852
1663562608002558200,9.701558105468749,-0.000839939690195,0.0021380283869802,-0.0078648896887898
1663562608012556500,9.711556640624998,-0.000839939690195,-0.0009162978967651,-0.008475755341351
1663562608022555000,9.721554931640625,-0.000839939690195,-0.0009162978967651,-0.0011453722836449
1663562608032553000,9.731552978515623,0.0016035212902352,-0.0009162978967651,0.0080176061019301
1663562608042551000,9.741551025390635,0.0016035212902352,-0.0027488935738801,0.0055741453543305
1663562608052549400,9.751549316406255,-0.0002290744741912,-0.0009162978967651,-0.0029779679607599
1663562608062547500,9.761547363281252,-0.0002290744741912,0.0009162978967651,-0.0072540249675512
1663562608072546600,9.771546630859376,-0.000839939690195,0.001527163083665,-0.0029779679607599
1663562608082545700,9.781545654296885,-0.0002290744741912,0.0009162978967651,0.0043524149805307
1663562608092544500,9.79154443359375,0.0003817907709162,0.0003054326225537,0.0049632801674306
1663562608102542800,9.801542968749999,-0.0002290744741912,0.001527163083665,0.00068722339347
1663562608112541700,9.811541748046878,-0.0002290744741912,0.0021380283869802,-0.0060322941280901
1663562608122540500,9.82154052734375,-0.0014508049935102,-0.0003054326225537,-0.0054214289411902
1663562608132539400,9.831539306640629,0.0009926559869199,-0.001527163083665,0.0012980886967852
1663562608142538200,9.841538330078123,0.0003817907709162,-0.0021380283869802,0.0049632801674306
1663562608152537000,9.851537109375002,0.0003817907709162,-0.0027488935738801,0.0074067409150302
1663562608162536000,9.861535888671874,-0.0014508049935102,-0.0021380283869802,0.0037415495608001
1663562608172534800,9.871534667968753,-0.0002290744741912,-0.001527163083665,-0.00236710277386
1663562608182533400,9.881533447265625,-0.0002290744741912,-0.0003054326225537,-0.00236710277386
1663562608192532200,9.891532226562504,0.0009926559869199,0.0003054326225537,-0.000534507096745
1663562608202532000,9.90153198242188,0.0009926559869199,0.0021380283869802,0.00068722339347
1663562608212530700,9.911530761718751,-0.0002290744741912,0.0009162978967651,-0.000534507096745
1663562608222529500,9.921529541015623,0.0003817907709162,0.001527163083665,-0.000534507096745
1663562608232528100,9.93152807617188,-0.0002290744741912,0.0009162978967651,0.0012980886967852
1663562608242527000,9.941526855468751,-0.000839939690195,-0.0027488935738801,7.63581556384e-05
1663562608252525600,9.951525634765623,0.0016035212902352,-0.00335975876078,0.0012980886967852
1663562608262524400,9.961524414062502,0.0016035212902352,-0.00335975876078,-0.000534507096745
1663562608272523000,9.971522949218752,0.0009926559869199,-0.0009162978967651,7.63581556384e-05
1663562608282521900,9.981521972656253,0.0009926559869199,0.0009162978967651,-0.000534507096745
1663562608292520400,9.991520507812503,-0.0002290744741912,0.0021380283869802,-0.000534507096745
1663562608302519300,10.001519287109375,-0.0014508049935102,0.0039706239476799,-0.000534507096745
1663562608312518700,10.011518554687498,-0.0002290744741912,0.00335975876078,-0.0011453722836449
1663562608322518000,10.021518066406252,-0.000839939690195,0.0009162978967651,7.63581556384e-05
1663562608332518000,10.031517822265627,-0.000839939690195,-0.001527163083665,0.0012980886967852
1663562608342517500,10.041517578125003,0.0009926559869199,-0.0027488935738801,0.0019089538836851
1663562608352517000,10.051517089843749,0.0016035212902352,-0.0039706239476799,-0.000534507096745
1663562608362516700,10.061516845703125,-0.0002290744741912,-0.001527163083665,-0.0017562375869601
1663562608372515600,10.071515625000004,0.0003817907709162,0.0003054326225537,-0.0017562375869601
1663562608382514200,10.081514160156253,-0.0020616701804101,0.005192354787141,0.0012980886967852
1663562608392513300,10.091513183593754,-0.0014508049935102,0.00335975876078,0.0019089538836851
1663562608402512600,10.1015126953125,-0.0002290744741912,0.001527163083665,0.0019089538836851
1663562608412511500,10.11151147460938,0.0009926559869199,0.0003054326225537,-0.0017562375869601
1663562608422510000,10.121510009765629,0.0003817907709162,-0.0021380283869802,-0.0041996985673904
1663562608432509000,10.131509033203123,0.0003817907709162,-0.001527163083665,-0.00236710277386
1663562608442507500,10.141507568359373,-0.000839939690195,-0.0021380283869802,0.0012980886967852
1663562608452506400,10.151506347656252,0.0003817907709162,-0.001527163083665,0.0019089538836851
1663562608462505200,10.161505126953124,-0.000839939690195,0.0009162978967651,0.0012980886967852
1663562608472503800,10.171503906250003,-0.0014508049935102,0.0021380283869802,-0.00236710277386
1663562608482502700,10.181502685546874,0.0003817907709162,0.001527163083665,-0.0029779679607599
1663562608492501500,10.191501464843753,0.0009926559869199,0.001527163083665,-0.000534507096745
1663562608502499000,10.2014990234375,-0.0002290744741912,-0.0003054326225537,0.00068722339347
1663562608512498000,10.211497802734378,0.0003817907709162,0.0003054326225537,-0.000534507096745
1663562608522496500,10.22149658203125,-0.0002290744741912,-0.001527163083665,-0.000534507096745
1663562608532495400,10.231495361328129,-0.0014508049935102,-0.0027488935738801,-0.0011453722836449
1663562608542494000,10.241493896484378,-0.000839939690195,-0.0009162978967651,7.63581556384e-05
1663562608552492800,10.251492919921873,-0.0002290744741912,-0.001527163083665,7.63581556384e-05
1663562608562491600,10.261491699218752,0.0003817907709162,0.001527163083665,-0.000534507096745
1663562608572490200,10.271490234375001,-0.0002290744741912,0.0009162978967651,-0.000534507096745
1663562608582489000,10.281489013671873,-0.000839939690195,0.0003054326225537,-0.000534507096745
1663562608592487700,10.291487792968752,-0.0002290744741912,-0.0003054326225537,0.00068722339347
1663562608602486500,10.301486572265624,-0.0002290744741912,0.0009162978967651,0.0012980886967852
1663562608612485000,10.311485107421873,0.0003817907709162,0.0003054326225537,0.00068722339347
1663562608622484000,10.321483886718752,0.0003817907709162,-0.0009162978967651,0.0012980886967852
1663562608632482800,10.331482910156254,-0.000839939690195,0.0003054326225537,-0.0017562375869601
1663562608642481400,10.341481445312503,-0.0020616701804101,0.0009162978967651,-0.0017562375869601
1663562608652480000,10.351479980468753,0.0009926559869199,-0.001527163083665,0.00068722339347
1663562608662478800,10.361478759765625,0.0016035212902352,-0.001527163083665,0.0019089538836851
1663562608672477400,10.371477539062504,-0.0002290744741912,0.0003054326225537,7.63581556384e-05
1663562608682476300,10.381476318359375,-0.0002290744741912,0.0009162978967651,-0.00236710277386
1663562608692475000,10.391474853515618,-0.000839939690195,0.0009162978967651,-0.0029779679607599
1663562608702473700,10.401473632812504,-0.0014508049935102,-0.0003054326225537,0.00068722339347
1663562608712472600,10.411472656249998,0.0003817907709162,-0.0021380283869802,0.0037415495608001
1663562608722471200,10.421471191406255,0.0016035212902352,-0.001527163083665,0.0025198191870003
1663562608732470000,10.431469970703127,0.0028252517804503,-0.001527163083665,-0.0029779679607599
1663562608742468900,10.441468749999999,0.0028252517804503,-0.0009162978967651,-0.0041996985673904
1663562608752467500,10.451467529296885,-0.0002290744741912,0.0021380283869802,7.63581556384e-05
1663562608762466300,10.46146630859375,-0.0020616701804101,0.0021380283869802,0.0055741453543305
1663562608772465200,10.471465087890628,-0.004505131393671,-0.0064140851609408,0.0104610677808523
1663562608782463700,10.481463623046878,-0.0020616701804101,-0.001527163083665,7.63581556384e-05
1663562608792462600,10.49146264648438,-0.000839939690195,-0.0021380283869802,-0.0048105637542903
1663562608802461200,10.501461181640629,0.0028252517804503,-0.0027488935738801,-0.0035888333804905
1663562608812460000,10.5114599609375,0.0040469821542501,-0.00335975876078,0.00068722339347
1663562608822458600,10.52145874023438,0.0028252517804503,-0.0021380283869802,0.0012980886967852
1663562608832457500,10.531457519531251,0.0003817907709162,0.0009162978967651,7.63581556384e-05
1663562608842456300,10.541456298828123,-0.000839939690195,0.00335975876078,7.63581556384e-05
1663562608852455200,10.551455078125002,-0.00267253536731,0.0045814891345798,0.0012980886967852
1663562608862453800,10.561453857421874,-0.0014508049935102,0.001527163083665,0.00068722339347
1663562608872452600,10.571452636718753,-0.000839939690195,-0.001527163083665,7.63581556384e-05
1663562608882451500,10.581451416015618,0.0016035212902352,-0.00335975876078,0.00068722339347
1663562608892450000,10.591449951171874,0.0040469821542501,-0.00335975876078,-0.000534507096745
1663562608902449000,10.601448974609376,0.0034361169673502,-0.0009162978967651,7.63581556384e-05
1663562608912447700,10.611447753906248,-0.0002290744741912,0.0021380283869802,0.0025198191870003
1663562608922446600,10.621446533203127,-0.000839939690195,0.001527163083665,-0.0011453722836449
1663562608932445400,10.631445556640628,-0.0032834007870405,0.0027488935738801,-0.000534507096745
1663562608942444300,10.6414443359375,-0.0020616701804101,0.0003054326225537,-0.000534507096745
1663562608952443100,10.651443115234379,0.0009926559869199,-0.001527163083665,7.63581556384e-05
1663562608962442200,10.661442138671873,0.0040469821542501,-0.00335975876078,0.0012980886967852
1663562608972441000,10.671441162109375,0.0028252517804503,-0.001527163083665,-0.000534507096745
1663562608982440000,10.681439941406254,0.0009926559869199,0.001527163083665,-0.0035888333804905
1663562608992438800,10.691438720703118,-0.0020616701804101,0.001527163083665,-0.0035888333804905
1663562609002437600,10.701437744140634,-0.0020616701804101,0.00335975876078,0.00068722339347
1663562609012435700,10.711435791015624,-0.0020616701804101,0.0009162978967651,0.0037415495608001
1663562609022434000,10.721434082031251,-0.000839939690195,0.0003054326225537,0.0049632801674306
1663562609032432000,10.731432128906249,0.0009926559869199,-0.0039706239476799,0.0012980886967852
1663562609042431000,10.741430908203128,0.0016035212902352,-0.0045814891345798,-0.0041996985673904
1663562609052428800,10.751428710937503,0.0009926559869199,-0.0021380283869802,-0.0054214289411902
1663562609062427600,10.761427734375005,-0.0002290744741912,0.0009162978967651,-0.0011453722836449
1663562609072425700,10.771425781250002,-0.0002290744741912,0.0021380283869802,0.0019089538836851
1663562609082424600,10.781424560546874,-0.000839939690195,0.0027488935738801,0.0025198191870003
1663562609092423000,10.791422851562501,-0.0014508049935102,0.0027488935738801,7.63581556384e-05
1663562609102421800,10.801421875000003,-0.0002290744741912,0.0009162978967651,-0.0029779679607599
1663562609112420600,10.811420654296874,0.0003817907709162,0.0003054326225537,-0.00236710277386
1663562609122419500,10.821419433593753,0.0003817907709162,-0.001527163083665,-0.000534507096745
1663562609132418300,10.831418212890625,0.0016035212902352,-0.0021380283869802,0.0019089538836851
1663562609142417200,10.841417236328127,0.0009926559869199,-0.0027488935738801,0.00068722339347
1663562609152416000,10.851416015624999,-0.0014508049935102,-0.0003054326225537,-0.000534507096745
1663562609162414800,10.861414794921885,-0.0020616701804101,0.0009162978967651,-0.0017562375869601
1663562609172413700,10.87141357421875,-0.0020616701804101,0.001527163083665,0.00068722339347
1663562609182412500,10.88141259765625,0.0003817907709162,0.0009162978967651,0.0012980886967852
1663562609192411400,10.89141137695313,0.0009926559869199,0.0003054326225537,0.0012980886967852
1663562609202410200,10.901410156250002,0.0016035212902352,-0.0003054326225537,-0.00236710277386
1663562609212409000,10.911409179687503,0.0009926559869199,-0.0009162978967651,-0.0035888333804905
1663562609222407700,10.921407714843753,0.0009926559869199,-0.0021380283869802,-0.0029779679607599
1663562609232406500,10.931406494140624,-0.000839939690195,-0.0009162978967651,0.0019089538836851
1663562609242405000,10.941405029296874,-0.000839939690195,0.0003054326225537,0.0025198191870003
1663562609252403700,10.951403808593753,-0.0014508049935102,0.0003054326225537,0.0012980886967852
1663562609262402600,10.961402587890625,0.0003817907709162,0.0003054326225537,-0.0011453722836449
1663562609272401400,10.971401367187504,0.0003817907709162,-0.0009162978967651,-0.0029779679607599
1663562609282400000,10.981399902343753,0.0003817907709162,-0.0009162978967651,-0.0011453722836449
1663562609292398600,10.991398681640625,-0.0002290744741912,0.0003054326225537,7.63581556384e-05
1663562609302397400,11.001397460937504,-0.000839939690195,0.0003054326225537,0.0019089538836851
1663562609312396800,11.011396728515628,-0.000839939690195,0.001527163083665,0.0012980886967852
1663562609322396400,11.021396484375003,0.0003817907709162,0.0003054326225537,-0.0017562375869601
1663562609332395800,11.031395751953127,-0.0002290744741912,-0.0003054326225537,-0.0035888333804905
1663562609342394600,11.041394531249999,-0.0002290744741912,-0.0009162978967651,-0.0011453722836449
1663562609352394200,11.051394287109375,-0.0002290744741912,-0.0009162978967651,0.0012980886967852
1663562609362393000,11.061393066406254,0.0009926559869199,-0.001527163083665,0.0037415495608001
1663562609372392400,11.071392333984377,0.0016035212902352,-0.0009162978967651,0.0025198191870003
1663562609382391300,11.081391357421879,0.0003817907709162,-0.0003054326225537,-0.0029779679607599
1663562609392390700,11.091390625000003,-0.0014508049935102,0.0021380283869802,-0.0035888333804905
1663562609402389500,11.101389404296874,0.0003817907709162,0.001527163083665,7.63581556384e-05
1663562609412388000,11.111388183593753,-0.000839939690195,-0.0003054326225537,0.0019089538836851
1663562609422387000,11.121386962890625,-0.000839939690195,0.0003054326225537,0.00068722339347
1663562609432385500,11.131385498046875,0.0009926559869199,-0.0009162978967651,-0.000534507096745
1663562609442384400,11.141384277343754,0.0009926559869199,-0.0003054326225537,-0.0029779679607599
1663562609452383200,11.151383300781248,0.0003817907709162,-0.0003054326225537,-0.0017562375869601
1663562609462381800,11.161381835937505,-0.0014508049935102,-0.0003054326225537,0.00068722339347
1663562609472380700,11.171380615234376,-0.0014508049935102,0.001527163083665,0.0025198191870003
1663562609482379500,11.181379638671878,-0.0014508049935102,0.0009162978967651,0.00068722339347
1663562609492378000,11.191378173828127,0.0009926559869199,0.0003054326225537,-0.0017562375869601
1663562609502377000,11.201376953125,-0.0002290744741912,0.0003054326225537,-0.00236710277386
1663562609512375800,11.211375732421878,0.0016035212902352,-0.0009162978967651,0.00068722339347
1663562609522374400,11.22137451171875,0.0009926559869199,-0.001527163083665,7.63581556384e-05
1663562609532373200,11.231373291015629,0.0003817907709162,-0.001527163083665,-0.0011453722836449
1663562609542371800,11.241371826171878,0.0009926559869199,-0.0009162978967651,-0.0011453722836449
1663562609552370700,11.25137060546875,-0.0002290744741912,0.0003054326225537,-0.000534507096745
1663562609562369300,11.26136938476563,0.0003817907709162,-0.001527163083665,7.63581556384e-05
1663562609572368100,11.271368164062501,0.0003817907709162,-0.0009162978967651,0.0025198191870003
1663562609582367000,11.281366943359373,-0.000839939690195,0.0003054326225537,0.0012980886967852
1663562609592365600,11.29136547851563,-0.000839939690195,-0.0003054326225537,-0.00236710277386
1663562609602364400,11.301364501953124,-0.000839939690195,-0.0009162978967651,-0.0017562375869601
1663562609612363300,11.311363281250003,0.0003817907709162,-0.0003054326225537,0.0012980886967852
1663562609622361900,11.321361816406252,0.0016035212902352,-0.001527163083665,0.0031306843739002
1663562609632360700,11.331360595703124,0.0003817907709162,-0.0003054326225537,0.0012980886967852
1663562609642359300,11.341359375000003,0.0003817907709162,0.0003054326225537,7.63581556384e-05
1663562609652358100,11.351358154296882,-0.000839939690195,-0.0003054326225537,-0.0011453722836449
1663562609662356700,11.361356689453125,-0.0002290744741912,0.0009162978967651,-0.000534507096745
1663562609672355300,11.371355224609374,0.0003817907709162,0.0009162978967651,0.0012980886967852
1663562609682354200,11.381354248046883,-0.0002290744741912,-0.0009162978967651,-0.000534507096745
1663562609692353000,11.391353027343754,-0.0002290744741912,0.0003054326225537,-0.000534507096745
1663562609702351600,11.401351562500004,-0.0020616701804101,0.0003054326225537,-0.000534507096745
1663562609712350500,11.411350585937498,-0.000839939690195,-0.0003054326225537,0.00068722339347
1663562609722349000,11.421349121093755,-0.0002290744741912,-0.0003054326225537,0.0012980886967852
1663562609732348000,11.431347900390634,0.0022143865935504,-0.0003054326225537,7.63581556384e-05
1663562609742346800,11.441346679687499,0.0003817907709162,0.0003054326225537,-0.0011453722836449
1663562609752345300,11.451345458984378,-0.000839939690195,0.0021380283869802,-0.0011453722836449
1663562609762344200,11.46134423828125,0.0003817907709162,-0.0003054326225537,7.63581556384e-05
1663562609772342800,11.471342773437499,-0.0002290744741912,-0.001527163083665,7.63581556384e-05
1663562609782341600,11.481341552734378,0.0003817907709162,-0.0003054326225537,7.63581556384e-05
1663562609792340500,11.49134057617188,0.0003817907709162,-0.001527163083665,-0.000534507096745
1663562609802339000,11.501339111328129,0.0003817907709162,-0.0009162978967651,0.00068722339347
1663562609812338000,11.511337890625,0.0016035212902352,-0.0009162978967651,0.00068722339347
1663562609822336500,11.52133642578125,0.0016035212902352,-0.0003054326225537,7.63581556384e-05
1663562609832335400,11.531335449218751,0.0003817907709162,0.001527163083665,7.63581556384e-05
1663562609842334200,11.541334228515623,-0.000839939690195,0.0009162978967651,7.63581556384e-05
1663562609852332800,11.551332763671873,-0.000839939690195,-0.0003054326225537,7.63581556384e-05
1663562609862331600,11.561331542968752,-0.000839939690195,0.0003054326225537,7.63581556384e-05
1663562609872330500,11.571330566406253,-0.0002290744741912,-0.0009162978967651,0.00068722339347
1663562609882329000,11.581329101562503,-0.0002290744741912,0.0009162978967651,-0.000534507096745
1663562609892328000,11.591327880859374,0.0003817907709162,-0.0003054326225537,-0.0011453722836449
1663562609902326800,11.601326904296883,-0.000839939690195,0.0009162978967651,-0.0011453722836449
1663562609912325400,11.611325439453118,-0.0014508049935102,-0.0003054326225537,-0.000534507096745
1663562609922324200,11.621324218750004,-0.0002290744741912,0.0003054326225537,0.0012980886967852
1663562609932322800,11.631322753906254,0.0003817907709162,-0.0003054326225537,0.00068722339347
1663562609942321700,11.641321777343748,0.0016035212902352,-0.0003054326225537,0.00068722339347
1663562609952320500,11.651320556640634,0.0009926559869199,-0.0009162978967651,-0.000534507096745
1663562609962319400,11.661319335937499,0.0003817907709162,-0.0003054326225537,7.63581556384e-05
1663562609972318500,11.671318359375,-0.0020616701804101,0.0003054326225537,0.0019089538836851
1663562609982317300,11.681317382812502,-0.0002290744741912,0.001527163083665,0.0025198191870003
1663562609992316400,11.691316406250003,-0.0020616701804101,0.0009162978967651,0.0025198191870003
1663562610002315300,11.701315185546882,0.0003817907709162,0.0003054326225537,0.0012980886967852
1663562610012313600,11.711313720703124,0.0009926559869199,0.0003054326225537,7.63581556384e-05
1663562610022311700,11.721311767578129,0.0016035212902352,-0.001527163083665,-0.0011453722836449
1663562610032310000,11.731310058593749,0.0003817907709162,-0.001527163083665,-0.0011453722836449
1663562610042309000,11.74130908203125,0.0016035212902352,-0.0003054326225537,-0.0011453722836449
1663562610052307500,11.751307373046885,-0.0002290744741912,-0.0003054326225537,0.0012980886967852
1663562610062305800,11.761305908203127,-0.0020616701804101,0.001527163083665,0.0012980886967852
1663562610072305000,11.771304931640628,-0.0014508049935102,0.0009162978967651,-0.0017562375869601
1663562610082304000,11.78130395507813,-0.000839939690195,0.0003054326225537,-0.000534507096745
1663562610092303000,11.791303222656254,0.0003817907709162,-0.0009162978967651,7.63581556384e-05
1663562610102302000,11.801302001953118,0.0009926559869199,0.001527163083665,7.63581556384e-05
1663562610112300800,11.811300781250004,-0.0002290744741912,-0.0003054326225537,7.63581556384e-05
1663562610122300000,11.821299804687499,0.0003817907709162,-0.0009162978967651,0.0012980886967852
1663562610132299000,11.83129907226563,0.0009926559869199,-0.0003054326225537,7.63581556384e-05
1663562610142298000,11.841298095703124,0.0009926559869199,-0.0003054326225537,-0.0017562375869601
1663562610152297200,11.851297119140625,0.0016035212902352,-0.001527163083665,-0.0017562375869601
1663562610162296300,11.861296386718749,-0.000839939690195,-0.0003054326225537,7.63581556384e-05
1663562610172295400,11.87129541015625,-0.0002290744741912,-0.001527163083665,0.0012980886967852
1663562610182294500,11.881294433593752,-0.0002290744741912,-0.0003054326225537,0.0019089538836851
1663562610192293600,11.891293701171875,0.0009926559869199,0.0003054326225537,0.0012980886967852
1663562610202292500,11.901292480468754,0.0003817907709162,0.0003054326225537,-0.00236710277386
1663562610212291600,11.911291503906249,0.0003817907709162,-0.0009162978967651,-0.0054214289411902
1663562610222290400,11.92129052734375,-0.0002290744741912,-0.0003054326225537,-0.00236710277386
1663562610232289500,11.931289550781251,-0.000839939690195,0.0003054326225537,0.0037415495608001
1663562610242288600,11.941288574218753,0.0003817907709162,0.0003054326225537,0.0055741453543305
1663562610252287700,11.951287841796884,-0.0002290744741912,0.0003054326225537,0.00068722339347
1663562610262286600,11.961286621093748,-0.0014508049935102,0.0003054326225537,-0.0060322941280901
1663562610272285700,11.97128564453125,-0.0014508049935102,-0.0009162978967651,-0.0060322941280901
1663562610282284500,11.981284423828129,0.0009926559869199,-0.0009162978967651,-0.0011453722836449
1663562610292283400,11.991283447265623,0.0022143865935504,-0.0021380283869802,0.0043524149805307
1663562610302282200,12.001282226562502,0.0016035212902352,-0.0003054326225537,0.0037415495608001
1663562610312281600,12.011281494140626,-0.000839939690195,0.0003054326225537,0.00068722339347
1663562610322281500,12.021281494140624,-0.000839939690195,0.001527163083665,-0.0041996985673904
1663562610332280800,12.031280761718754,-0.0020616701804101,0.0003054326225537,-0.0017562375869601
1663562610342279400,12.041279541015626,-0.000839939690195,-0.001527163083665,0.0019089538836851
1663562610352279000,12.05127905273438,0.0016035212902352,-0.001527163083665,0.0037415495608001
1663562610362278400,12.061278320312503,0.0003817907709162,-0.001527163083665,0.0025198191870003
1663562610372277200,12.071277343750005,0.0009926559869199,-0.001527163083665,-0.0017562375869601
1663562610382275800,12.081275878906254,-0.0002290744741912,0.0009162978967651,-0.00236710277386
1663562610392274700,12.091274658203126,0.0003817907709162,0.0003054326225537,-0.0017562375869601
1663562610402273800,12.101273681640635,-0.0014508049935102,0.0009162978967651,-0.0011453722836449
1663562610412272600,12.111272705078129,0.0003817907709162,0.0003054326225537,0.0019089538836851
1663562610422271200,12.121271240234378,0.0022143865935504,-0.0009162978967651,0.0019089538836851
1663562610432270000,12.13127001953125,0.0009926559869199,-0.0003054326225537,7.63581556384e-05
1663562610442268700,12.1412685546875,0.0009926559869199,-0.0003054326225537,-0.0017562375869601
1663562610452267500,12.151267578125001,0.0003817907709162,0.0003054326225537,-0.00236710277386
1663562610462266400,12.161266357421873,-0.0002290744741912,-0.0009162978967651,-0.0011453722836449
1663562610472265000,12.17126489257813,-0.000839939690195,-0.0003054326225537,7.63581556384e-05
1663562610482263800,12.181263916015624,-0.000839939690195,0.001527163083665,0.00068722339347
1663562610492262700,12.191262695312503,0.0009926559869199,0.0003054326225537,0.00068722339347
1663562610502261800,12.201261718750004,0.0009926559869199,0.0003054326225537,-0.000534507096745
1663562610512260400,12.211260253906254,-0.0002290744741912,0.0021380283869802,-0.0029779679607599
1663562610522259200,12.221259277343748,0.0003817907709162,-0.0003054326225537,-0.0017562375869601
1663562610532257800,12.231257812500004,-0.0002290744741912,-0.0003054326225537,0.00068722339347
1663562610542256600,12.241256591796883,0.0003817907709162,-0.0003054326225537,0.0019089538836851
1663562610552255500,12.251255371093748,-0.000839939690195,0.0003054326225537,0.0012980886967852
1663562610562254000,12.261254150390634,-0.000839939690195,-0.0009162978967651,-0.0017562375869601
1663562610572253000,12.271252929687499,-0.0014508049935102,-0.0009162978967651,-0.0017562375869601
1663562610582251500,12.281251464843749,0.0003817907709162,-0.0009162978967651,7.63581556384e-05
1663562610592250400,12.29125048828125,0.0016035212902352,0.0009162978967651,7.63581556384e-05
1663562610602249200,12.301249267578129,0.0003817907709162,0.0021380283869802,-0.000534507096745
1663562610612248000,12.311248046875,-0.0002290744741912,0.001527163083665,-0.0011453722836449
1663562610622246700,12.32124658203125,-0.000839939690195,-0.0009162978967651,0.00068722339347
1663562610632245500,12.331245605468752,-0.0014508049935102,-0.0009162978967651,0.0019089538836851
1663562610642244000,12.341244140625001,-0.000839939690195,-0.0021380283869802,0.0025198191870003
1663562610652243000,12.351242919921873,0.0003817907709162,-0.0021380283869802,0.0012980886967852
1663562610662241800,12.361241699218752,0.0022143865935504,-0.0003054326225537,7.63581556384e-05
1663562610672240400,12.371240478515624,0.0016035212902352,0.0003054326225537,-0.0017562375869601
1663562610682239200,12.381239257812503,-0.0014508049935102,0.0027488935738801,-0.0017562375869601
1663562610692237800,12.391237792968752,-0.0014508049935102,0.0027488935738801,-0.0011453722836449
1663562610702236700,12.401236572265624,-0.0014508049935102,0.0003054326225537,0.0037415495608001
1663562610712235300,12.411235351562503,-0.0002290744741912,-0.0021380283869802,0.0037415495608001
1663562610722234000,12.421234130859375,0.0009926559869199,-0.0009162978967651,7.63581556384e-05
1663562610732232700,12.431232666015624,0.0016035212902352,-0.0009162978967651,-0.0041996985673904
1663562610742231600,12.441231445312503,-0.000839939690195,0.0003054326225537,-0.0054214289411902
1663562610752230100,12.451230224609375,-0.000839939690195,-0.0003054326225537,-0.0011453722836449
1663562610762229000,12.461229003906254,0.0003817907709162,-0.0003054326225537,0.0049632801674306
1663562610772227600,12.471227539062504,0.0022143865935504,0.0003054326225537,0.0061850105412304
1663562610782226400,12.481226318359376,0.0028252517804503,0.0009162978967651,-0.000534507096745
1663562610792225000,12.491225097656255,-0.000839939690195,0.0003054326225537,-0.0060322941280901
1663562610802223900,12.501223876953127,-0.0014508049935102,-0.0003054326225537,-0.0041996985673904
1663562610812222700,12.511222656249998,-0.000839939690195,-0.0009162978967651,0.0025198191870003
